Time,Header.seq,Header.stamp.secs,Header.stamp.nsecs,Header.frame_id,IMU.header.seq,IMU.header.stamp.secs,IMU.header.stamp.nsecs,IMU.header.frame_id,IMU.orientation.x,IMU.orientation.y,IMU.orientation.z,IMU.orientation.w,IMU.orientation_covariance,IMU.angular_velocity.x,IMU.angular_velocity.y,IMU.angular_velocity.z,IMU.angular_velocity_covariance,IMU.linear_acceleration.x,IMU.linear_acceleration.y,IMU.linear_acceleration.z,IMU.linear_acceleration_covariance,MagField.header.seq,MagField.header.stamp.secs,MagField.header.stamp.nsecs,MagField.header.frame_id,MagField.magnetic_field.x,MagField.magnetic_field.y,MagField.magnetic_field.z,MagField.magnetic_field_covariance,raw_datastring
1666453756.9653075,5353,1666453756,964481592,IMU1_Frame,0,1666453756,964501857,IMU1_Frame,0.029008064865542756,0.05903339962940342,0.9164467556018473,0.3947137368369635,"(0.0, 0.0, 0.0, 0.0, 0.0, 0.0, 0.0, 0.0, 0.0)",-0.00052,0.0,0.0,"(0.0, 0.0, 0.0, 0.0, 0.0, 0.0, 0.0, 0.0, 0.0)",0.943,-0.802,-9.438,"(0.0, 0.0, 0.0, 0.0, 0.0, 0.0, 0.0, 0.0, 0.0)",0,1666453756,964518308,IMU1_Frame,-0.3462,-0.0057,0.4217,"(0.0, 0.0, 0.0, 0.0, 0.0, 0.0, 0.0, 0.0, 0.0)","b'$VNYMR,+133.643,+005.726,+004.918,-00.3462,-00.0057,+00.4217,+00.943,-00.802,-09.438,+00.000193,-00.000846,-00.000520*69\r\n'"
1666453756.9903188,5354,1666453756,989499330,IMU1_Frame,0,1666453756,989519119,IMU1_Frame,0.029011509391594116,0.05902540212050299,0.9164472707305477,0.3947134836788131,"(0.0, 0.0, 0.0, 0.0, 0.0, 0.0, 0.0, 0.0, 0.0)",0.000371,0.0,0.0,"(0.0, 0.0, 0.0, 0.0, 0.0, 0.0, 0.0, 0.0, 0.0)",0.967,-0.82,-9.427,"(0.0, 0.0, 0.0, 0.0, 0.0, 0.0, 0.0, 0.0, 0.0)",0,1666453756,989535808,IMU1_Frame,-0.3462,-0.0081,0.4229,"(0.0, 0.0, 0.0, 0.0, 0.0, 0.0, 0.0, 0.0, 0.0)","b'$VNYMR,+133.643,+005.726,+004.917,-00.3462,-00.0081,+00.4229,+00.967,-00.820,-09.427,+00.000599,+00.000258,+00.000371*61\r\n'"
1666453757.0152497,5355,1666453757,14447689,IMU1_Frame,0,1666453757,14467000,IMU1_Frame,0.02901099429668394,0.05902565529143557,0.9164438261707057,0.3947214811749311,"(0.0, 0.0, 0.0, 0.0, 0.0, 0.0, 0.0, 0.0, 0.0)",6.5e-05,0.0,0.0,"(0.0, 0.0, 0.0, 0.0, 0.0, 0.0, 0.0, 0.0, 0.0)",0.972,-0.813,-9.447,"(0.0, 0.0, 0.0, 0.0, 0.0, 0.0, 0.0, 0.0, 0.0)",0,1666453757,14482021,IMU1_Frame,-0.3462,-0.0045,0.4241,"(0.0, 0.0, 0.0, 0.0, 0.0, 0.0, 0.0, 0.0, 0.0)","b'$VNYMR,+133.642,+005.726,+004.917,-00.3462,-00.0045,+00.4241,+00.972,-00.813,-09.447,-00.000162,+00.000683,+00.000065*66\r\n'"
1666453757.0401366,5356,1666453757,39403438,IMU1_Frame,0,1666453757,39423465,IMU1_Frame,0.029020905912637417,0.05902182781497941,0.9164334596485687,0.3947453924974224,"(0.0, 0.0, 0.0, 0.0, 0.0, 0.0, 0.0, 0.0, 0.0)",-0.000355,0.0,0.0,"(0.0, 0.0, 0.0, 0.0, 0.0, 0.0, 0.0, 0.0, 0.0)",0.935,-0.809,-9.386,"(0.0, 0.0, 0.0, 0.0, 0.0, 0.0, 0.0, 0.0, 0.0)",0,1666453757,39439916,IMU1_Frame,-0.3473,-0.008,0.4216,"(0.0, 0.0, 0.0, 0.0, 0.0, 0.0, 0.0, 0.0, 0.0)","b'$VNYMR,+133.639,+005.727,+004.916,-00.3473,-00.0080,+00.4216,+00.935,-00.809,-09.386,+00.000308,-00.000076,-00.000355*67\r\n'"
1666453757.065168,5357,1666453757,64438343,IMU1_Frame,0,1666453757,64457893,IMU1_Frame,0.029016430838903103,0.05903033164460135,0.916426054800254,0.3947616404497039,"(0.0, 0.0, 0.0, 0.0, 0.0, 0.0, 0.0, 0.0, 0.0)",-0.00018,0.0,0.0,"(0.0, 0.0, 0.0, 0.0, 0.0, 0.0, 0.0, 0.0, 0.0)",0.949,-0.835,-9.453,"(0.0, 0.0, 0.0, 0.0, 0.0, 0.0, 0.0, 0.0, 0.0)",0,1666453757,64474582,IMU1_Frame,-0.3462,-0.0069,0.4217,"(0.0, 0.0, 0.0, 0.0, 0.0, 0.0, 0.0, 0.0, 0.0)","b'$VNYMR,+133.637,+005.727,+004.917,-00.3462,-00.0069,+00.4217,+00.949,-00.835,-09.453,-00.000928,+00.000502,-00.000180*61\r\n'"
1666453757.090261,5358,1666453757,89489936,IMU1_Frame,0,1666453757,89509010,IMU1_Frame,0.0289998916584834,0.05902376358228937,0.9164237048021431,0.39476929324998516,"(0.0, 0.0, 0.0, 0.0, 0.0, 0.0, 0.0, 0.0, 0.0)",-0.000979,0.0,0.0,"(0.0, 0.0, 0.0, 0.0, 0.0, 0.0, 0.0, 0.0, 0.0)",0.95,-0.81,-9.393,"(0.0, 0.0, 0.0, 0.0, 0.0, 0.0, 0.0, 0.0, 0.0)",0,1666453757,89524507,IMU1_Frame,-0.3451,-0.0093,0.4218,"(0.0, 0.0, 0.0, 0.0, 0.0, 0.0, 0.0, 0.0, 0.0)","b'$VNYMR,+133.636,+005.725,+004.917,-00.3451,-00.0093,+00.4218,+00.950,-00.810,-09.393,+00.000023,-00.002412,-00.000979*62\r\n'"
1666453757.1152256,5359,1666453757,114480495,IMU1_Frame,0,1666453757,114501953,IMU1_Frame,0.02899886149505499,0.059024269716891724,0.9164168146386111,0.39478528780084965,"(0.0, 0.0, 0.0, 0.0, 0.0, 0.0, 0.0, 0.0, 0.0)",-0.001386,0.0,0.0,"(0.0, 0.0, 0.0, 0.0, 0.0, 0.0, 0.0, 0.0, 0.0)",0.948,-0.826,-9.419,"(0.0, 0.0, 0.0, 0.0, 0.0, 0.0, 0.0, 0.0, 0.0)",0,1666453757,114518165,IMU1_Frame,-0.3473,-0.0034,0.4216,"(0.0, 0.0, 0.0, 0.0, 0.0, 0.0, 0.0, 0.0, 0.0)","b'$VNYMR,+133.634,+005.725,+004.917,-00.3473,-00.0034,+00.4216,+00.948,-00.826,-09.419,-00.000150,-00.000469,-00.001386*6C\r\n'"
1666453757.1563396,5360,1666453757,139405250,IMU1_Frame,0,1666453757,139424085,IMU1_Frame,0.02898232253728973,0.059017701063772895,0.916414464164002,0.3947929404288998,"(0.0, 0.0, 0.0, 0.0, 0.0, 0.0, 0.0, 0.0, 0.0)",-0.000103,0.0,0.0,"(0.0, 0.0, 0.0, 0.0, 0.0, 0.0, 0.0, 0.0, 0.0)",0.983,-0.812,-9.409,"(0.0, 0.0, 0.0, 0.0, 0.0, 0.0, 0.0, 0.0, 0.0)",0,1666453757,139440298,IMU1_Frame,-0.3495,-0.0057,0.4203,"(0.0, 0.0, 0.0, 0.0, 0.0, 0.0, 0.0, 0.0, 0.0)","b'$VNYMR,+133.633,+005.723,+004.917,-00.3495,-00.0057,+00.4203,+00.983,-00.812,-09.409,-00.000787,-00.000201,-00.000103*6F\r\n'"
1666453757.2004004,5361,1666453757,164393424,IMU1_Frame,0,1666453757,164412021,IMU1_Frame,0.0289812924796749,0.05901820689173716,0.9164075735877503,0.3948089348184813,"(0.0, 0.0, 0.0, 0.0, 0.0, 0.0, 0.0, 0.0, 0.0)",-0.001228,0.0,0.0,"(0.0, 0.0, 0.0, 0.0, 0.0, 0.0, 0.0, 0.0, 0.0)",0.966,-0.82,-9.383,"(0.0, 0.0, 0.0, 0.0, 0.0, 0.0, 0.0, 0.0, 0.0)",0,1666453757,164427280,IMU1_Frame,-0.3473,-0.0057,0.4216,"(0.0, 0.0, 0.0, 0.0, 0.0, 0.0, 0.0, 0.0, 0.0)","b'$VNYMR,+133.631,+005.723,+004.917,-00.3473,-00.0057,+00.4216,+00.966,-00.820,-09.383,+00.000082,-00.001627,-00.001228*60\r\n'"
1666453757.2004695,5362,1666453757,189529657,IMU1_Frame,0,1666453757,189548969,IMU1_Frame,0.02896130831879182,0.05901963478978148,0.9164047076280697,0.3948168400244052,"(0.0, 0.0, 0.0, 0.0, 0.0, 0.0, 0.0, 0.0, 0.0)",-0.000347,0.0,0.0,"(0.0, 0.0, 0.0, 0.0, 0.0, 0.0, 0.0, 0.0, 0.0)",0.962,-0.813,-9.416,"(0.0, 0.0, 0.0, 0.0, 0.0, 0.0, 0.0, 0.0, 0.0)",0,1666453757,189564943,IMU1_Frame,-0.3451,-0.0081,0.418,"(0.0, 0.0, 0.0, 0.0, 0.0, 0.0, 0.0, 0.0, 0.0)","b'$VNYMR,+133.630,+005.721,+004.918,-00.3451,-00.0081,+00.4180,+00.962,-00.813,-09.416,-00.000698,-00.002419,-00.000347*6A\r\n'"
1666453757.244363,5363,1666453757,214392423,IMU1_Frame,0,1666453757,214411735,IMU1_Frame,0.02896372379280379,0.05901214316915172,0.9163983316476851,0.39483258150256156,"(0.0, 0.0, 0.0, 0.0, 0.0, 0.0, 0.0, 0.0, 0.0)",0.000444,0.0,0.0,"(0.0, 0.0, 0.0, 0.0, 0.0, 0.0, 0.0, 0.0, 0.0)",0.939,-0.82,-9.416,"(0.0, 0.0, 0.0, 0.0, 0.0, 0.0, 0.0, 0.0, 0.0)",0,1666453757,214428424,IMU1_Frame,-0.3462,-0.0069,0.4229,"(0.0, 0.0, 0.0, 0.0, 0.0, 0.0, 0.0, 0.0, 0.0)","b'$VNYMR,+133.628,+005.721,+004.917,-00.3462,-00.0069,+00.4229,+00.939,-00.820,-09.416,-00.001328,-00.000609,+00.000444*68\r\n'"
1666453757.2444236,5364,1666453757,239352226,IMU1_Frame,0,1666453757,239370822,IMU1_Frame,0.028967259859255867,0.05902405704691109,0.916390378140419,0.39484900075551566,"(0.0, 0.0, 0.0, 0.0, 0.0, 0.0, 0.0, 0.0, 0.0)",-0.001348,0.0,0.0,"(0.0, 0.0, 0.0, 0.0, 0.0, 0.0, 0.0, 0.0, 0.0)",0.953,-0.819,-9.459,"(0.0, 0.0, 0.0, 0.0, 0.0, 0.0, 0.0, 0.0, 0.0)",0,1666453757,239385604,IMU1_Frame,-0.345,-0.0022,0.4266,"(0.0, 0.0, 0.0, 0.0, 0.0, 0.0, 0.0, 0.0, 0.0)","b'$VNYMR,+133.626,+005.722,+004.918,-00.3450,-00.0022,+00.4266,+00.953,-00.819,-09.459,+00.000065,-00.000880,-00.001348*6C\r\n'"
1666453757.2883835,5365,1666453757,264498949,IMU1_Frame,0,1666453757,264518976,IMU1_Frame,0.028970190552325373,0.059016312844849796,0.916387447447349,0.39485674495757694,"(0.0, 0.0, 0.0, 0.0, 0.0, 0.0, 0.0, 0.0, 0.0)",-0.000467,0.0,0.0,"(0.0, 0.0, 0.0, 0.0, 0.0, 0.0, 0.0, 0.0, 0.0)",0.976,-0.81,-9.385,"(0.0, 0.0, 0.0, 0.0, 0.0, 0.0, 0.0, 0.0, 0.0)",0,1666453757,264534473,IMU1_Frame,-0.3473,-0.0069,0.4241,"(0.0, 0.0, 0.0, 0.0, 0.0, 0.0, 0.0, 0.0, 0.0)","b'$VNYMR,+133.625,+005.722,+004.917,-00.3473,-00.0069,+00.4241,+00.976,-00.810,-09.385,+00.000320,-00.000962,-00.000467*67\r\n'"
1666453757.2901587,5366,1666453757,289488315,IMU1_Frame,0,1666453757,289509296,IMU1_Frame,0.02895667283819584,0.05902190922358358,0.9163736959595759,0.39488881306404666,"(0.0, 0.0, 0.0, 0.0, 0.0, 0.0, 0.0, 0.0, 0.0)",-0.001835,0.0,0.0,"(0.0, 0.0, 0.0, 0.0, 0.0, 0.0, 0.0, 0.0, 0.0)",0.966,-0.81,-9.439,"(0.0, 0.0, 0.0, 0.0, 0.0, 0.0, 0.0, 0.0, 0.0)",0,1666453757,289525747,IMU1_Frame,-0.3483,0.0025,0.4189,"(0.0, 0.0, 0.0, 0.0, 0.0, 0.0, 0.0, 0.0, 0.0)","b'$VNYMR,+133.621,+005.721,+004.918,-00.3483,+00.0025,+00.4189,+00.966,-00.810,-09.439,+00.000916,-00.000968,-00.001835*67\r\n'"
1666453757.3323538,5367,1666453757,314514636,IMU1_Frame,0,1666453757,314533710,IMU1_Frame,0.028956157773769597,0.059022161915977756,0.9163702498696993,0.394896809918097,"(0.0, 0.0, 0.0, 0.0, 0.0, 0.0, 0.0, 0.0, 0.0)",-0.000249,0.0,0.0,"(0.0, 0.0, 0.0, 0.0, 0.0, 0.0, 0.0, 0.0, 0.0)",0.952,-0.813,-9.406,"(0.0, 0.0, 0.0, 0.0, 0.0, 0.0, 0.0, 0.0, 0.0)",0,1666453757,314548969,IMU1_Frame,-0.3484,-0.0033,0.4215,"(0.0, 0.0, 0.0, 0.0, 0.0, 0.0, 0.0, 0.0, 0.0)","b'$VNYMR,+133.620,+005.721,+004.918,-00.3484,-00.0033,+00.4215,+00.952,-00.813,-09.406,+00.000970,-00.001313,-00.000249*69\r\n'"
1666453757.3763433,5368,1666453757,339410066,IMU1_Frame,0,1666453757,339429140,IMU1_Frame,0.028960723199772956,0.05903357052017141,0.9163691875087314,0.3948972350472632,"(0.0, 0.0, 0.0, 0.0, 0.0, 0.0, 0.0, 0.0, 0.0)",-0.000761,0.0,0.0,"(0.0, 0.0, 0.0, 0.0, 0.0, 0.0, 0.0, 0.0, 0.0)",0.971,-0.802,-9.375,"(0.0, 0.0, 0.0, 0.0, 0.0, 0.0, 0.0, 0.0, 0.0)",0,1666453757,339444398,IMU1_Frame,-0.3473,-0.0057,0.4191,"(0.0, 0.0, 0.0, 0.0, 0.0, 0.0, 0.0, 0.0, 0.0)","b'$VNYMR,+133.620,+005.722,+004.919,-00.3473,-00.0057,+00.4191,+00.971,-00.802,-09.375,+00.001517,+00.000930,-00.000761*63\r\n'"
1666453757.3763921,5369,1666453757,364498853,IMU1_Frame,0,1666453757,364518642,IMU1_Frame,0.028955731355648693,0.05904232542717391,0.9163583336026639,0.39492147810262235,"(0.0, 0.0, 0.0, 0.0, 0.0, 0.0, 0.0, 0.0, 0.0)",-0.000714,0.0,0.0,"(0.0, 0.0, 0.0, 0.0, 0.0, 0.0, 0.0, 0.0, 0.0)",0.951,-0.824,-9.428,"(0.0, 0.0, 0.0, 0.0, 0.0, 0.0, 0.0, 0.0, 0.0)",0,1666453757,364534854,IMU1_Frame,-0.3474,-0.0104,0.4192,"(0.0, 0.0, 0.0, 0.0, 0.0, 0.0, 0.0, 0.0, 0.0)","b'$VNYMR,+133.617,+005.722,+004.920,-00.3474,-00.0104,+00.4192,+00.951,-00.824,-09.428,-00.000136,-00.001385,-00.000714*66\r\n'"
1666453757.4203625,5370,1666453757,389513254,IMU1_Frame,0,1666453757,389532566,IMU1_Frame,0.028954700868261886,0.05904283079103042,0.9163514407830152,0.39493747151252095,"(0.0, 0.0, 0.0, 0.0, 0.0, 0.0, 0.0, 0.0, 0.0)",-0.001191,0.0,0.0,"(0.0, 0.0, 0.0, 0.0, 0.0, 0.0, 0.0, 0.0, 0.0)",0.961,-0.802,-9.408,"(0.0, 0.0, 0.0, 0.0, 0.0, 0.0, 0.0, 0.0, 0.0)",0,1666453757,389549016,IMU1_Frame,-0.3484,-0.0056,0.4253,"(0.0, 0.0, 0.0, 0.0, 0.0, 0.0, 0.0, 0.0, 0.0)","b'$VNYMR,+133.615,+005.722,+004.920,-00.3484,-00.0056,+00.4253,+00.961,-00.802,-09.408,+00.000200,+00.000153,-00.001191*62\r\n'"
1666453757.42041,5371,1666453757,414468050,IMU1_Frame,0,1666453757,414487123,IMU1_Frame,0.02896168171179343,0.05904674838444857,0.9163440003135886,0.39495363726257565,"(0.0, 0.0, 0.0, 0.0, 0.0, 0.0, 0.0, 0.0, 0.0)",0.000694,0.0,0.0,"(0.0, 0.0, 0.0, 0.0, 0.0, 0.0, 0.0, 0.0, 0.0)",0.955,-0.83,-9.417,"(0.0, 0.0, 0.0, 0.0, 0.0, 0.0, 0.0, 0.0, 0.0)",0,1666453757,414503097,IMU1_Frame,-0.3472,0.0048,0.4177,"(0.0, 0.0, 0.0, 0.0, 0.0, 0.0, 0.0, 0.0, 0.0)","b'$VNYMR,+133.613,+005.723,+004.920,-00.3472,+00.0048,+00.4177,+00.955,-00.830,-09.417,+00.001534,+00.000231,+00.000694*6B\r\n'"
1666453757.4643657,5372,1666453757,439422369,IMU1_Frame,0,1666453757,439441919,IMU1_Frame,0.028966761804579928,0.05905790444998238,0.916346384117909,0.39494606587047676,"(0.0, 0.0, 0.0, 0.0, 0.0, 0.0, 0.0, 0.0, 0.0)",0.001127,0.0,0.0,"(0.0, 0.0, 0.0, 0.0, 0.0, 0.0, 0.0, 0.0, 0.0)",0.96,-0.805,-9.398,"(0.0, 0.0, 0.0, 0.0, 0.0, 0.0, 0.0, 0.0, 0.0)",0,1666453757,439458131,IMU1_Frame,-0.3484,-0.0045,0.4228,"(0.0, 0.0, 0.0, 0.0, 0.0, 0.0, 0.0, 0.0, 0.0)","b'$VNYMR,+133.614,+005.724,+004.921,-00.3484,-00.0045,+00.4228,+00.960,-00.805,-09.398,+00.001884,+00.000406,+00.001127*6B\r\n'"
1666453757.4651463,5373,1666453757,464401960,IMU1_Frame,0,1666453757,464420795,IMU1_Frame,0.028969693049325153,0.05905016062749926,0.9163434528731639,0.3949538096929591,"(0.0, 0.0, 0.0, 0.0, 0.0, 0.0, 0.0, 0.0, 0.0)",0.000704,0.0,0.0,"(0.0, 0.0, 0.0, 0.0, 0.0, 0.0, 0.0, 0.0, 0.0)",0.974,-0.813,-9.414,"(0.0, 0.0, 0.0, 0.0, 0.0, 0.0, 0.0, 0.0, 0.0)",0,1666453757,464436531,IMU1_Frame,-0.3461,-0.0022,0.4228,"(0.0, 0.0, 0.0, 0.0, 0.0, 0.0, 0.0, 0.0, 0.0)","b'$VNYMR,+133.613,+005.724,+004.920,-00.3461,-00.0022,+00.4228,+00.974,-00.813,-09.414,-00.000247,-00.001446,+00.000704*61\r\n'"
1666453757.508329,5374,1666453757,489487171,IMU1_Frame,0,1666453757,489506959,IMU1_Frame,0.028971593940240115,0.059042922514874585,0.9163336279741707,0.3949775465632932,"(0.0, 0.0, 0.0, 0.0, 0.0, 0.0, 0.0, 0.0, 0.0)",-0.001079,0.0,0.0,"(0.0, 0.0, 0.0, 0.0, 0.0, 0.0, 0.0, 0.0, 0.0)",0.939,-0.827,-9.415,"(0.0, 0.0, 0.0, 0.0, 0.0, 0.0, 0.0, 0.0, 0.0)",0,1666453757,489522933,IMU1_Frame,-0.3484,-0.0045,0.424,"(0.0, 0.0, 0.0, 0.0, 0.0, 0.0, 0.0, 0.0, 0.0)","b'$VNYMR,+133.610,+005.724,+004.919,-00.3484,-00.0045,+00.4240,+00.939,-00.827,-09.415,-00.000794,-00.001021,-00.001079*67\r\n'"
1666453757.5523367,5375,1666453757,514447450,IMU1_Frame,0,1666453757,514466285,IMU1_Frame,0.02896306747251628,0.05903976281000433,0.9163307285266135,0.394985370726318,"(0.0, 0.0, 0.0, 0.0, 0.0, 0.0, 0.0, 0.0, 0.0)",-0.001127,0.0,0.0,"(0.0, 0.0, 0.0, 0.0, 0.0, 0.0, 0.0, 0.0, 0.0)",0.936,-0.807,-9.405,"(0.0, 0.0, 0.0, 0.0, 0.0, 0.0, 0.0, 0.0, 0.0)",0,1666453757,514482736,IMU1_Frame,-0.3506,-0.0033,0.4202,"(0.0, 0.0, 0.0, 0.0, 0.0, 0.0, 0.0, 0.0, 0.0)","b'$VNYMR,+133.609,+005.723,+004.919,-00.3506,-00.0033,+00.4202,+00.936,-00.807,-09.405,+00.000158,-00.001603,-00.001127*64\r\n'"
1666453757.5523825,5376,1666453757,539427757,IMU1_Frame,0,1666453757,539447069,IMU1_Frame,0.028954025867287854,0.05903685563010887,0.9163243819417215,0.39500119129251754,"(0.0, 0.0, 0.0, 0.0, 0.0, 0.0, 0.0, 0.0, 0.0)",-0.000601,0.0,0.0,"(0.0, 0.0, 0.0, 0.0, 0.0, 0.0, 0.0, 0.0, 0.0)",0.952,-0.839,-9.426,"(0.0, 0.0, 0.0, 0.0, 0.0, 0.0, 0.0, 0.0, 0.0)",0,1666453757,539462804,IMU1_Frame,-0.3495,-0.0057,0.4203,"(0.0, 0.0, 0.0, 0.0, 0.0, 0.0, 0.0, 0.0, 0.0)","b'$VNYMR,+133.607,+005.722,+004.919,-00.3495,-00.0057,+00.4203,+00.952,-00.839,-09.426,-00.000134,-00.000892,-00.000601*64\r\n'"
1666453757.5962906,5377,1666453757,564537525,IMU1_Frame,0,1666453757,564557552,IMU1_Frame,0.02894042043386904,0.05902253893711163,0.9163190973309802,0.395016586777145,"(0.0, 0.0, 0.0, 0.0, 0.0, 0.0, 0.0, 0.0, 0.0)",-0.001836,0.0,0.0,"(0.0, 0.0, 0.0, 0.0, 0.0, 0.0, 0.0, 0.0, 0.0)",0.934,-0.815,-9.401,"(0.0, 0.0, 0.0, 0.0, 0.0, 0.0, 0.0, 0.0, 0.0)",0,1666453757,564573287,IMU1_Frame,-0.3495,-0.0057,0.4153,"(0.0, 0.0, 0.0, 0.0, 0.0, 0.0, 0.0, 0.0, 0.0)","b'$VNYMR,+133.605,+005.720,+004.918,-00.3495,-00.0057,+00.4153,+00.934,-00.815,-09.401,-00.000623,-00.000919,-00.001836*60\r\n'"
1666453757.59637,5378,1666453757,589509487,IMU1_Frame,0,1666453757,589529514,IMU1_Frame,0.028944469200675033,0.05903420073848381,0.9163145878053176,0.39502500809572855,"(0.0, 0.0, 0.0, 0.0, 0.0, 0.0, 0.0, 0.0, 0.0)",0.000524,0.0,0.0,"(0.0, 0.0, 0.0, 0.0, 0.0, 0.0, 0.0, 0.0, 0.0)",0.95,-0.82,-9.408,"(0.0, 0.0, 0.0, 0.0, 0.0, 0.0, 0.0, 0.0, 0.0)",0,1666453757,589546203,IMU1_Frame,-0.3473,-0.0057,0.4228,"(0.0, 0.0, 0.0, 0.0, 0.0, 0.0, 0.0, 0.0, 0.0)","b'$VNYMR,+133.604,+005.721,+004.919,-00.3473,-00.0057,+00.4228,+00.950,-00.820,-09.408,+00.001597,-00.000640,+00.000524*6A\r\n'"
1666453757.6404684,5379,1666453757,614522457,IMU1_Frame,0,1666453757,614542245,IMU1_Frame,0.028942408500693125,0.0590352110550935,0.9163007982730316,0.3950569932681418,"(0.0, 0.0, 0.0, 0.0, 0.0, 0.0, 0.0, 0.0, 0.0)",-0.001213,0.0,0.0,"(0.0, 0.0, 0.0, 0.0, 0.0, 0.0, 0.0, 0.0, 0.0)",0.942,-0.787,-9.379,"(0.0, 0.0, 0.0, 0.0, 0.0, 0.0, 0.0, 0.0, 0.0)",0,1666453757,614557981,IMU1_Frame,-0.3484,-0.0022,0.4165,"(0.0, 0.0, 0.0, 0.0, 0.0, 0.0, 0.0, 0.0, 0.0)","b'$VNYMR,+133.600,+005.721,+004.919,-00.3484,-00.0022,+00.4165,+00.942,-00.787,-09.379,+00.000716,-00.001609,-00.001213*6C\r\n'"
1666453757.6405134,5380,1666453757,639452219,IMU1_Frame,0,1666453757,639470815,IMU1_Frame,0.02894878850060475,0.0590194712083188,0.9162983809391643,0.3950644842945313,"(0.0, 0.0, 0.0, 0.0, 0.0, 0.0, 0.0, 0.0, 0.0)",0.000697,0.0,0.0,"(0.0, 0.0, 0.0, 0.0, 0.0, 0.0, 0.0, 0.0, 0.0)",0.945,-0.801,-9.444,"(0.0, 0.0, 0.0, 0.0, 0.0, 0.0, 0.0, 0.0, 0.0)",0,1666453757,639487981,IMU1_Frame,-0.3472,0.0025,0.419,"(0.0, 0.0, 0.0, 0.0, 0.0, 0.0, 0.0, 0.0, 0.0)","b'$VNYMR,+133.599,+005.721,+004.917,-00.3472,+00.0025,+00.4190,+00.945,-00.801,-09.444,+00.000232,-00.000257,+00.000697*6E\r\n'"
1666453757.6843421,5381,1666453757,664547920,IMU1_Frame,0,1666453757,664567947,IMU1_Frame,0.02894878850060475,0.0590194712083188,0.9162983809391643,0.3950644842945313,"(0.0, 0.0, 0.0, 0.0, 0.0, 0.0, 0.0, 0.0, 0.0)",0.00032,0.0,0.0,"(0.0, 0.0, 0.0, 0.0, 0.0, 0.0, 0.0, 0.0, 0.0)",0.932,-0.828,-9.437,"(0.0, 0.0, 0.0, 0.0, 0.0, 0.0, 0.0, 0.0, 0.0)",0,1666453757,664583683,IMU1_Frame,-0.3473,-0.008,0.4241,"(0.0, 0.0, 0.0, 0.0, 0.0, 0.0, 0.0, 0.0, 0.0)","b'$VNYMR,+133.599,+005.721,+004.917,-00.3473,-00.0080,+00.4241,+00.932,-00.828,-09.437,+00.000097,+00.000132,+00.000320*64\r\n'"
1666453757.6902452,5382,1666453757,689487934,IMU1_Frame,0,1666453757,689507484,IMU1_Frame,0.02893923252218881,0.0590168156062689,0.9162885850284398,0.395088300564952,"(0.0, 0.0, 0.0, 0.0, 0.0, 0.0, 0.0, 0.0, 0.0)",-0.001251,0.0,0.0,"(0.0, 0.0, 0.0, 0.0, 0.0, 0.0, 0.0, 0.0, 0.0)",0.972,-0.822,-9.406,"(0.0, 0.0, 0.0, 0.0, 0.0, 0.0, 0.0, 0.0, 0.0)",0,1666453757,689522504,IMU1_Frame,-0.3495,-0.0057,0.4215,"(0.0, 0.0, 0.0, 0.0, 0.0, 0.0, 0.0, 0.0, 0.0)","b'$VNYMR,+133.596,+005.720,+004.917,-00.3495,-00.0057,+00.4215,+00.972,-00.822,-09.406,-00.000491,-00.000821,-00.001251*6C\r\n'"
1666453757.7323487,5383,1666453757,714543581,IMU1_Frame,0,1666453757,714562892,IMU1_Frame,0.02894379556609525,0.05902822518493496,0.9162875227775911,0.39508872539196843,"(0.0, 0.0, 0.0, 0.0, 0.0, 0.0, 0.0, 0.0, 0.0)",-0.000859,0.0,0.0,"(0.0, 0.0, 0.0, 0.0, 0.0, 0.0, 0.0, 0.0, 0.0)",0.931,-0.805,-9.397,"(0.0, 0.0, 0.0, 0.0, 0.0, 0.0, 0.0, 0.0, 0.0)",0,1666453757,714579105,IMU1_Frame,-0.3473,-0.0045,0.4216,"(0.0, 0.0, 0.0, 0.0, 0.0, 0.0, 0.0, 0.0, 0.0)","b'$VNYMR,+133.596,+005.721,+004.918,-00.3473,-00.0045,+00.4216,+00.931,-00.805,-09.397,-00.000091,-00.000334,-00.000859*6F\r\n'"
1666453757.7763832,5384,1666453757,739423274,IMU1_Frame,0,1666453757,739442110,IMU1_Frame,0.02895129125540929,0.05903189128492463,0.9162835276747852,0.3950968937587594,"(0.0, 0.0, 0.0, 0.0, 0.0, 0.0, 0.0, 0.0, 0.0)",-0.000656,0.0,0.0,"(0.0, 0.0, 0.0, 0.0, 0.0, 0.0, 0.0, 0.0, 0.0)",0.964,-0.826,-9.429,"(0.0, 0.0, 0.0, 0.0, 0.0, 0.0, 0.0, 0.0, 0.0)",0,1666453757,739458322,IMU1_Frame,-0.3506,-0.0045,0.4202,"(0.0, 0.0, 0.0, 0.0, 0.0, 0.0, 0.0, 0.0, 0.0)","b'$VNYMR,+133.595,+005.722,+004.918,-00.3506,-00.0045,+00.4202,+00.964,-00.826,-09.429,-00.001093,-00.000725,-00.000656*6C\r\n'"
1666453757.7764277,5385,1666453757,764534950,IMU1_Frame,0,1666453757,764554738,IMU1_Frame,0.028947843383475797,0.059039887364896584,0.9162830124894624,0.3950971463913929,"(0.0, 0.0, 0.0, 0.0, 0.0, 0.0, 0.0, 0.0, 0.0)",0.000245,0.0,0.0,"(0.0, 0.0, 0.0, 0.0, 0.0, 0.0, 0.0, 0.0, 0.0)",0.954,-0.832,-9.409,"(0.0, 0.0, 0.0, 0.0, 0.0, 0.0, 0.0, 0.0, 0.0)",0,1666453757,764570713,IMU1_Frame,-0.3484,-0.0045,0.4191,"(0.0, 0.0, 0.0, 0.0, 0.0, 0.0, 0.0, 0.0, 0.0)","b'$VNYMR,+133.595,+005.722,+004.919,-00.3484,-00.0045,+00.4191,+00.954,-00.832,-09.409,-00.000412,+00.000222,+00.000245*63\r\n'"
1666453757.8203325,5386,1666453757,789469718,IMU1_Frame,0,1666453757,789489507,IMU1_Frame,0.02896231914227503,0.05904747263377706,0.916271573741682,0.3951214790395552,"(0.0, 0.0, 0.0, 0.0, 0.0, 0.0, 0.0, 0.0, 0.0)",-0.001223,0.0,0.0,"(0.0, 0.0, 0.0, 0.0, 0.0, 0.0, 0.0, 0.0, 0.0)",0.951,-0.808,-9.403,"(0.0, 0.0, 0.0, 0.0, 0.0, 0.0, 0.0, 0.0, 0.0)",0,1666453757,789505481,IMU1_Frame,-0.3473,-0.0057,0.4179,"(0.0, 0.0, 0.0, 0.0, 0.0, 0.0, 0.0, 0.0, 0.0)","b'$VNYMR,+133.592,+005.724,+004.919,-00.3473,-00.0057,+00.4179,+00.951,-00.808,-09.403,-00.001944,+00.000105,-00.001223*67\r\n'"
1666453757.8203864,5387,1666453757,814677238,IMU1_Frame,0,1666453757,814697980,IMU1_Frame,0.028968783895126998,0.05905164476643093,0.9162606816550383,0.39514563905357897,"(0.0, 0.0, 0.0, 0.0, 0.0, 0.0, 0.0, 0.0, 0.0)",-0.001079,0.0,0.0,"(0.0, 0.0, 0.0, 0.0, 0.0, 0.0, 0.0, 0.0, 0.0)",0.967,-0.806,-9.4,"(0.0, 0.0, 0.0, 0.0, 0.0, 0.0, 0.0, 0.0, 0.0)",0,1666453757,814715147,IMU1_Frame,-0.3461,0.0071,0.4202,"(0.0, 0.0, 0.0, 0.0, 0.0, 0.0, 0.0, 0.0, 0.0)","b'$VNYMR,+133.589,+005.725,+004.919,-00.3461,+00.0071,+00.4202,+00.967,-00.806,-09.400,+00.000419,+00.000965,-00.001079*6B\r\n'"
1666453757.864388,5388,1666453757,839486360,IMU1_Frame,0,1666453757,839505910,IMU1_Frame,0.028993331158963007,0.059061633490591715,0.9162624869526714,0.3951381596366457,"(0.0, 0.0, 0.0, 0.0, 0.0, 0.0, 0.0, 0.0, 0.0)",-0.000237,0.0,0.0,"(0.0, 0.0, 0.0, 0.0, 0.0, 0.0, 0.0, 0.0, 0.0)",0.962,-0.794,-9.368,"(0.0, 0.0, 0.0, 0.0, 0.0, 0.0, 0.0, 0.0, 0.0)",0,1666453757,839521646,IMU1_Frame,-0.3451,-0.0046,0.4204,"(0.0, 0.0, 0.0, 0.0, 0.0, 0.0, 0.0, 0.0, 0.0)","b'$VNYMR,+133.590,+005.728,+004.919,-00.3451,-00.0046,+00.4204,+00.962,-00.794,-09.368,-00.000471,-00.001367,-00.000237*6F\r\n'"
1666453757.8652523,5389,1666453757,864508628,IMU1_Frame,0,1666453757,864528656,IMU1_Frame,0.028992300334580653,0.05906213951068616,0.9162555903512309,0.39515415137367194,"(0.0, 0.0, 0.0, 0.0, 0.0, 0.0, 0.0, 0.0, 0.0)",-0.001499,0.0,0.0,"(0.0, 0.0, 0.0, 0.0, 0.0, 0.0, 0.0, 0.0, 0.0)",0.947,-0.82,-9.404,"(0.0, 0.0, 0.0, 0.0, 0.0, 0.0, 0.0, 0.0, 0.0)",0,1666453757,864544868,IMU1_Frame,-0.3484,-0.008,0.4216,"(0.0, 0.0, 0.0, 0.0, 0.0, 0.0, 0.0, 0.0, 0.0)","b'$VNYMR,+133.588,+005.728,+004.919,-00.3484,-00.0080,+00.4216,+00.947,-00.820,-09.404,-00.001075,+00.000261,-00.001499*6F\r\n'"
1666453757.908269,5390,1666453757,889479160,IMU1_Frame,0,1666453757,889498949,IMU1_Frame,0.02898428974899823,0.05905872553312558,0.9162561380785763,0.39515397925300183,"(0.0, 0.0, 0.0, 0.0, 0.0, 0.0, 0.0, 0.0, 0.0)",-7.7e-05,0.0,0.0,"(0.0, 0.0, 0.0, 0.0, 0.0, 0.0, 0.0, 0.0, 0.0)",0.975,-0.838,-9.385,"(0.0, 0.0, 0.0, 0.0, 0.0, 0.0, 0.0, 0.0, 0.0)",0,1666453757,889515161,IMU1_Frame,-0.3507,-0.0068,0.4227,"(0.0, 0.0, 0.0, 0.0, 0.0, 0.0, 0.0, 0.0, 0.0)","b'$VNYMR,+133.588,+005.727,+004.919,-00.3507,-00.0068,+00.4227,+00.975,-00.838,-09.385,+00.000061,-00.001125,-00.000077*6B\r\n'"
1666453757.9524012,5391,1666453757,914493322,IMU1_Frame,0,1666453757,914513349,IMU1_Frame,0.02899075408144871,0.05906289850709388,0.9162452449257449,0.395178138753514,"(0.0, 0.0, 0.0, 0.0, 0.0, 0.0, 0.0, 0.0, 0.0)",-0.001538,0.0,0.0,"(0.0, 0.0, 0.0, 0.0, 0.0, 0.0, 0.0, 0.0, 0.0)",0.949,-0.812,-9.417,"(0.0, 0.0, 0.0, 0.0, 0.0, 0.0, 0.0, 0.0, 0.0)",0,1666453757,914529800,IMU1_Frame,-0.3462,-0.0069,0.4229,"(0.0, 0.0, 0.0, 0.0, 0.0, 0.0, 0.0, 0.0, 0.0)","b'$VNYMR,+133.585,+005.728,+004.919,-00.3462,-00.0069,+00.4229,+00.949,-00.812,-09.417,-00.000657,-00.000460,-00.001538*60\r\n'"
1666453757.9524474,5392,1666453757,939428567,IMU1_Frame,0,1666453757,939448356,IMU1_Frame,0.028986274514506617,0.059071400167910015,0.9162378321662142,0.3951943831576159,"(0.0, 0.0, 0.0, 0.0, 0.0, 0.0, 0.0, 0.0, 0.0)",-0.000729,0.0,0.0,"(0.0, 0.0, 0.0, 0.0, 0.0, 0.0, 0.0, 0.0, 0.0)",0.957,-0.801,-9.427,"(0.0, 0.0, 0.0, 0.0, 0.0, 0.0, 0.0, 0.0, 0.0)",0,1666453757,939464092,IMU1_Frame,-0.3495,-0.0045,0.4215,"(0.0, 0.0, 0.0, 0.0, 0.0, 0.0, 0.0, 0.0, 0.0)","b'$VNYMR,+133.583,+005.728,+004.920,-00.3495,-00.0045,+00.4215,+00.957,-00.801,-09.427,+00.000295,-00.000174,-00.000729*64\r\n'"
1666453757.9962547,5393,1666453757,964508533,IMU1_Frame,0,1666453757,964527845,IMU1_Frame,0.028989207808447187,0.05906365746302059,0.916234898872274,0.3952021258625054,"(0.0, 0.0, 0.0, 0.0, 0.0, 0.0, 0.0, 0.0, 0.0)",0.000325,0.0,0.0,"(0.0, 0.0, 0.0, 0.0, 0.0, 0.0, 0.0, 0.0, 0.0)",0.975,-0.818,-9.416,"(0.0, 0.0, 0.0, 0.0, 0.0, 0.0, 0.0, 0.0, 0.0)",0,1666453757,964543819,IMU1_Frame,-0.3484,-0.0091,0.4266,"(0.0, 0.0, 0.0, 0.0, 0.0, 0.0, 0.0, 0.0, 0.0)","b'$VNYMR,+133.582,+005.728,+004.919,-00.3484,-00.0091,+00.4266,+00.975,-00.818,-09.416,-00.000270,-00.000423,+00.000325*6C\r\n'"
1666453757.99633,5394,1666453757,989500761,IMU1_Frame,0,1666453757,989520549,IMU1_Frame,0.028987146080204213,0.059064669341284196,0.9162211031574602,0.395234108253142,"(0.0, 0.0, 0.0, 0.0, 0.0, 0.0, 0.0, 0.0, 0.0)",-0.00119,0.0,0.0,"(0.0, 0.0, 0.0, 0.0, 0.0, 0.0, 0.0, 0.0, 0.0)",0.955,-0.816,-9.424,"(0.0, 0.0, 0.0, 0.0, 0.0, 0.0, 0.0, 0.0, 0.0)",0,1666453757,989537000,IMU1_Frame,-0.3473,-0.0068,0.4253,"(0.0, 0.0, 0.0, 0.0, 0.0, 0.0, 0.0, 0.0, 0.0)","b'$VNYMR,+133.578,+005.728,+004.919,-00.3473,-00.0068,+00.4253,+00.955,-00.816,-09.424,-00.000455,+00.000125,-00.001190*63\r\n'"
1666453758.040465,5395,1666453758,14625787,IMU1_Frame,0,1666453758,14646053,IMU1_Frame,0.028986115202837056,0.05906517525342779,0.9162142048814068,0.39525009926787,"(0.0, 0.0, 0.0, 0.0, 0.0, 0.0, 0.0, 0.0, 0.0)",-0.000155,0.0,0.0,"(0.0, 0.0, 0.0, 0.0, 0.0, 0.0, 0.0, 0.0, 0.0)",0.954,-0.809,-9.391,"(0.0, 0.0, 0.0, 0.0, 0.0, 0.0, 0.0, 0.0, 0.0)",0,1666453758,14661788,IMU1_Frame,-0.3461,0.0024,0.4203,"(0.0, 0.0, 0.0, 0.0, 0.0, 0.0, 0.0, 0.0, 0.0)","b'$VNYMR,+133.576,+005.728,+004.919,-00.3461,+00.0024,+00.4203,+00.954,-00.809,-09.391,-00.000528,+00.000523,-00.000155*62\r\n'"
1666453758.0405111,5396,1666453758,39598941,IMU1_Frame,0,1666453758,39620161,IMU1_Frame,0.028986115202837056,0.05906517525342779,0.9162142048814068,0.39525009926787,"(0.0, 0.0, 0.0, 0.0, 0.0, 0.0, 0.0, 0.0, 0.0)",-0.000739,0.0,0.0,"(0.0, 0.0, 0.0, 0.0, 0.0, 0.0, 0.0, 0.0, 0.0)",0.951,-0.798,-9.473,"(0.0, 0.0, 0.0, 0.0, 0.0, 0.0, 0.0, 0.0, 0.0)",0,1666453758,39637327,IMU1_Frame,-0.3462,-0.0046,0.4204,"(0.0, 0.0, 0.0, 0.0, 0.0, 0.0, 0.0, 0.0, 0.0)","b'$VNYMR,+133.576,+005.728,+004.919,-00.3462,-00.0046,+00.4204,+00.951,-00.798,-09.473,-00.000369,-00.000583,-00.000739*6E\r\n'"
1666453758.0843332,5397,1666453758,64671754,IMU1_Frame,0,1666453758,64692020,IMU1_Frame,0.028993609956864567,0.0590688430845652,0.9162102078220776,0.39525826675851505,"(0.0, 0.0, 0.0, 0.0, 0.0, 0.0, 0.0, 0.0, 0.0)",-0.000621,0.0,0.0,"(0.0, 0.0, 0.0, 0.0, 0.0, 0.0, 0.0, 0.0, 0.0)",0.961,-0.827,-9.379,"(0.0, 0.0, 0.0, 0.0, 0.0, 0.0, 0.0, 0.0, 0.0)",0,1666453758,64707994,IMU1_Frame,-0.3495,-0.0045,0.4165,"(0.0, 0.0, 0.0, 0.0, 0.0, 0.0, 0.0, 0.0, 0.0)","b'$VNYMR,+133.575,+005.729,+004.919,-00.3495,-00.0045,+00.4165,+00.961,-00.827,-09.379,+00.000111,-00.000370,-00.000621*6F\r\n'"
1666453758.128497,5398,1666453758,89570283,IMU1_Frame,0,1666453758,89590072,IMU1_Frame,0.028988533662885164,0.059057685728267445,0.9162078217366777,0.39526583720456937,"(0.0, 0.0, 0.0, 0.0, 0.0, 0.0, 0.0, 0.0, 0.0)",0.000554,0.0,0.0,"(0.0, 0.0, 0.0, 0.0, 0.0, 0.0, 0.0, 0.0, 0.0)",0.918,-0.823,-9.385,"(0.0, 0.0, 0.0, 0.0, 0.0, 0.0, 0.0, 0.0, 0.0)",0,1666453758,89605569,IMU1_Frame,-0.3484,-0.0069,0.4216,"(0.0, 0.0, 0.0, 0.0, 0.0, 0.0, 0.0, 0.0, 0.0)","b'$VNYMR,+133.574,+005.728,+004.918,-00.3484,-00.0069,+00.4216,+00.918,-00.823,-09.385,-00.001484,-00.000958,+00.000554*67\r\n'"
1666453758.1285486,5399,1666453758,114718914,IMU1_Frame,0,1666453758,114740371,IMU1_Frame,0.02898000814612214,0.0590545236678027,0.9162049200767207,0.39527366063201,"(0.0, 0.0, 0.0, 0.0, 0.0, 0.0, 0.0, 0.0, 0.0)",0.000631,0.0,0.0,"(0.0, 0.0, 0.0, 0.0, 0.0, 0.0, 0.0, 0.0, 0.0)",0.962,-0.814,-9.395,"(0.0, 0.0, 0.0, 0.0, 0.0, 0.0, 0.0, 0.0, 0.0)",0,1666453758,114757537,IMU1_Frame,-0.3494,0.0072,0.4201,"(0.0, 0.0, 0.0, 0.0, 0.0, 0.0, 0.0, 0.0, 0.0)","b'$VNYMR,+133.573,+005.727,+004.918,-00.3494,+00.0072,+00.4201,+00.962,-00.814,-09.395,-00.000355,-00.001564,+00.000631*64\r\n'"
1666453758.1723106,5400,1666453758,139514446,IMU1_Frame,0,1666453758,139534235,IMU1_Frame,0.02898000814612214,0.0590545236678027,0.9162049200767207,0.39527366063201,"(0.0, 0.0, 0.0, 0.0, 0.0, 0.0, 0.0, 0.0, 0.0)",-0.00038,0.0,0.0,"(0.0, 0.0, 0.0, 0.0, 0.0, 0.0, 0.0, 0.0, 0.0)",0.963,-0.822,-9.385,"(0.0, 0.0, 0.0, 0.0, 0.0, 0.0, 0.0, 0.0, 0.0)",0,1666453758,139551162,IMU1_Frame,-0.3484,-0.0057,0.4203,"(0.0, 0.0, 0.0, 0.0, 0.0, 0.0, 0.0, 0.0, 0.0)","b'$VNYMR,+133.573,+005.727,+004.918,-00.3484,-00.0057,+00.4203,+00.963,-00.822,-09.385,-00.000550,-00.000765,-00.000380*6B\r\n'"
1666453758.1723657,5401,1666453758,164559841,IMU1_Frame,0,1666453758,164580345,IMU1_Frame,0.028982426997686016,0.0590470341170856,0.9161985364278161,0.3952893984599475,"(0.0, 0.0, 0.0, 0.0, 0.0, 0.0, 0.0, 0.0, 0.0)",-0.000262,0.0,0.0,"(0.0, 0.0, 0.0, 0.0, 0.0, 0.0, 0.0, 0.0, 0.0)",0.966,-0.803,-9.407,"(0.0, 0.0, 0.0, 0.0, 0.0, 0.0, 0.0, 0.0, 0.0)",0,1666453758,164596319,IMU1_Frame,-0.3496,-0.0092,0.4216,"(0.0, 0.0, 0.0, 0.0, 0.0, 0.0, 0.0, 0.0, 0.0)","b'$VNYMR,+133.571,+005.727,+004.917,-00.3496,-00.0092,+00.4216,+00.966,-00.803,-09.407,-00.000236,-00.001259,-00.000262*62\r\n'"
1666453758.2163346,5402,1666453758,189572572,IMU1_Frame,0,1666453758,189593076,IMU1_Frame,0.028989406450528526,0.05905095526214674,0.9161910894905021,0.395305560970853,"(0.0, 0.0, 0.0, 0.0, 0.0, 0.0, 0.0, 0.0, 0.0)",-0.000922,0.0,0.0,"(0.0, 0.0, 0.0, 0.0, 0.0, 0.0, 0.0, 0.0, 0.0)",0.953,-0.817,-9.426,"(0.0, 0.0, 0.0, 0.0, 0.0, 0.0, 0.0, 0.0, 0.0)",0,1666453758,189610242,IMU1_Frame,-0.3462,-0.0057,0.4266,"(0.0, 0.0, 0.0, 0.0, 0.0, 0.0, 0.0, 0.0, 0.0)","b'$VNYMR,+133.569,+005.728,+004.917,-00.3462,-00.0057,+00.4266,+00.953,-00.817,-09.426,-00.000676,-00.001587,-00.000922*6A\r\n'"
1666453758.2163846,5403,1666453758,214473485,IMU1_Frame,0,1666453758,214493036,IMU1_Frame,0.0289883758125171,0.059051461213743675,0.9161841899673682,0.3953215514617328,"(0.0, 0.0, 0.0, 0.0, 0.0, 0.0, 0.0, 0.0, 0.0)",-0.001645,0.0,0.0,"(0.0, 0.0, 0.0, 0.0, 0.0, 0.0, 0.0, 0.0, 0.0)",0.953,-0.813,-9.438,"(0.0, 0.0, 0.0, 0.0, 0.0, 0.0, 0.0, 0.0, 0.0)",0,1666453758,214508771,IMU1_Frame,-0.3484,-0.008,0.4253,"(0.0, 0.0, 0.0, 0.0, 0.0, 0.0, 0.0, 0.0, 0.0)","b'$VNYMR,+133.567,+005.728,+004.917,-00.3484,-00.0080,+00.4253,+00.953,-00.813,-09.438,-00.000485,-00.000471,-00.001645*63\r\n'"
1666453758.2604072,5404,1666453758,239408731,IMU1_Frame,0,1666453758,239429473,IMU1_Frame,0.02897029482063982,0.05904564158912044,0.9161714854246101,0.39535318832936955,"(0.0, 0.0, 0.0, 0.0, 0.0, 0.0, 0.0, 0.0, 0.0)",0.000172,0.0,0.0,"(0.0, 0.0, 0.0, 0.0, 0.0, 0.0, 0.0, 0.0, 0.0)",0.959,-0.825,-9.426,"(0.0, 0.0, 0.0, 0.0, 0.0, 0.0, 0.0, 0.0, 0.0)",0,1666453758,239445209,IMU1_Frame,-0.3495,-0.0021,0.4239,"(0.0, 0.0, 0.0, 0.0, 0.0, 0.0, 0.0, 0.0, 0.0)","b'$VNYMR,+133.563,+005.726,+004.917,-00.3495,-00.0021,+00.4239,+00.959,-00.825,-09.426,-00.000738,+00.000515,+00.000172*6A\r\n'"
1666453758.2651796,5405,1666453758,264484643,IMU1_Frame,0,1666453758,264503955,IMU1_Frame,0.0289697795491098,0.05904589440038665,0.9161680352823026,0.3953611834187822,"(0.0, 0.0, 0.0, 0.0, 0.0, 0.0, 0.0, 0.0, 0.0)",-0.000812,0.0,0.0,"(0.0, 0.0, 0.0, 0.0, 0.0, 0.0, 0.0, 0.0, 0.0)",0.948,-0.82,-9.422,"(0.0, 0.0, 0.0, 0.0, 0.0, 0.0, 0.0, 0.0, 0.0)",0,1666453758,264519214,IMU1_Frame,-0.3451,-0.007,0.418,"(0.0, 0.0, 0.0, 0.0, 0.0, 0.0, 0.0, 0.0, 0.0)","b'$VNYMR,+133.562,+005.726,+004.917,-00.3451,-00.0070,+00.4180,+00.948,-00.820,-09.422,+00.000002,-00.000702,-00.000812*64\r\n'"
1666453758.3083525,5406,1666453758,289489269,IMU1_Frame,0,1666453758,289509296,IMU1_Frame,0.02897675875578917,0.05904981595830116,0.9161605871483803,0.3953773453844246,"(0.0, 0.0, 0.0, 0.0, 0.0, 0.0, 0.0, 0.0, 0.0)",-0.000538,0.0,0.0,"(0.0, 0.0, 0.0, 0.0, 0.0, 0.0, 0.0, 0.0, 0.0)",0.958,-0.795,-9.4,"(0.0, 0.0, 0.0, 0.0, 0.0, 0.0, 0.0, 0.0, 0.0)",0,1666453758,289524316,IMU1_Frame,-0.3483,0.0037,0.4239,"(0.0, 0.0, 0.0, 0.0, 0.0, 0.0, 0.0, 0.0, 0.0)","b'$VNYMR,+133.560,+005.727,+004.917,-00.3483,+00.0037,+00.4239,+00.958,-00.795,-09.400,-00.000218,-00.000423,-00.000538*66\r\n'"
1666453758.352276,5407,1666453758,314596414,IMU1_Frame,0,1666453758,314617156,IMU1_Frame,0.028967718440925633,0.059046905600487795,0.9161542340153734,0.39539316347534237,"(0.0, 0.0, 0.0, 0.0, 0.0, 0.0, 0.0, 0.0, 0.0)",-0.001185,0.0,0.0,"(0.0, 0.0, 0.0, 0.0, 0.0, 0.0, 0.0, 0.0, 0.0)",0.964,-0.795,-9.434,"(0.0, 0.0, 0.0, 0.0, 0.0, 0.0, 0.0, 0.0, 0.0)",0,1666453758,314633369,IMU1_Frame,-0.3495,-0.0056,0.4265,"(0.0, 0.0, 0.0, 0.0, 0.0, 0.0, 0.0, 0.0, 0.0)","b'$VNYMR,+133.558,+005.726,+004.917,-00.3495,-00.0056,+00.4265,+00.964,-00.795,-09.434,+00.000181,-00.001407,-00.001185*6A\r\n'"
1666453758.3522859,5408,1666453758,337467432,IMU1_Frame,0,1666453758,337471246,IMU1_Frame,0.028969623251099957,0.0590396690875149,0.9161443975857914,0.39541689540900177,"(0.0, 0.0, 0.0, 0.0, 0.0, 0.0, 0.0, 0.0, 0.0)",-0.001009,0.0,0.0,"(0.0, 0.0, 0.0, 0.0, 0.0, 0.0, 0.0, 0.0, 0.0)",0.949,-0.799,-9.445,"(0.0, 0.0, 0.0, 0.0, 0.0, 0.0, 0.0, 0.0, 0.0)",0,1666453758,337474346,IMU1_Frame,-0.3473,-0.0057,0.4204,"(0.0, 0.0, 0.0, 0.0, 0.0, 0.0, 0.0, 0.0, 0.0)","b'$VNYMR,+133.555,+005.726,+004.916,-00.3473,-00.0057,+00.4204,+00.949,-00.799,-09.445,+00.000421,-00.000957,-00.001009*6E\r\n'"
1666453758.396378,5409,1666453758,362167119,IMU1_Frame,0,1666453758,362172842,IMU1_Frame,0.02896859281007303,0.05904017469383131,0.916137496119512,0.3954328850849373,"(0.0, 0.0, 0.0, 0.0, 0.0, 0.0, 0.0, 0.0, 0.0)",-0.000242,0.0,0.0,"(0.0, 0.0, 0.0, 0.0, 0.0, 0.0, 0.0, 0.0, 0.0)",0.945,-0.848,-9.432,"(0.0, 0.0, 0.0, 0.0, 0.0, 0.0, 0.0, 0.0, 0.0)",0,1666453758,362177133,IMU1_Frame,-0.3495,-0.0045,0.419,"(0.0, 0.0, 0.0, 0.0, 0.0, 0.0, 0.0, 0.0, 0.0)","b'$VNYMR,+133.553,+005.726,+004.916,-00.3495,-00.0045,+00.4190,+00.945,-00.848,-09.432,-00.000309,-00.000338,-00.000242*66\r\n'"
1666453758.3964176,5410,1666453758,387886285,IMU1_Frame,0,1666453758,387897014,IMU1_Frame,0.028965142006062292,0.05904816949943754,0.9161369808619084,0.39543313786854245,"(0.0, 0.0, 0.0, 0.0, 0.0, 0.0, 0.0, 0.0, 0.0)",-0.001624,0.0,0.0,"(0.0, 0.0, 0.0, 0.0, 0.0, 0.0, 0.0, 0.0, 0.0)",0.983,-0.819,-9.438,"(0.0, 0.0, 0.0, 0.0, 0.0, 0.0, 0.0, 0.0, 0.0)",0,1666453758,387905359,IMU1_Frame,-0.3473,-0.008,0.4229,"(0.0, 0.0, 0.0, 0.0, 0.0, 0.0, 0.0, 0.0, 0.0)","b'$VNYMR,+133.553,+005.726,+004.917,-00.3473,-00.0080,+00.4229,+00.983,-00.819,-09.438,+00.000243,+00.000123,-00.001624*61\r\n'"
1666453758.440454,5411,1666453758,414474725,IMU1_Frame,0,1666453758,414494276,IMU1_Frame,0.028965657297447368,0.059047916728640765,0.9161404316321381,0.39542514305012777,"(0.0, 0.0, 0.0, 0.0, 0.0, 0.0, 0.0, 0.0, 0.0)",-0.000234,0.0,0.0,"(0.0, 0.0, 0.0, 0.0, 0.0, 0.0, 0.0, 0.0, 0.0)",0.945,-0.818,-9.395,"(0.0, 0.0, 0.0, 0.0, 0.0, 0.0, 0.0, 0.0, 0.0)",0,1666453758,414510011,IMU1_Frame,-0.3495,-0.0068,0.4215,"(0.0, 0.0, 0.0, 0.0, 0.0, 0.0, 0.0, 0.0, 0.0)","b'$VNYMR,+133.554,+005.726,+004.917,-00.3495,-00.0068,+00.4215,+00.945,-00.818,-09.395,-00.000641,-00.000762,-00.000234*6D\r\n'"
1666453758.440498,5412,1666453758,439500570,IMU1_Frame,0,1666453758,439519882,IMU1_Frame,0.028959552868468515,0.05903726369494253,0.9161311419280732,0.3954487028460667,"(0.0, 0.0, 0.0, 0.0, 0.0, 0.0, 0.0, 0.0, 0.0)",-0.000386,0.0,0.0,"(0.0, 0.0, 0.0, 0.0, 0.0, 0.0, 0.0, 0.0, 0.0)",0.956,-0.83,-9.42,"(0.0, 0.0, 0.0, 0.0, 0.0, 0.0, 0.0, 0.0, 0.0)",0,1666453758,439536571,IMU1_Frame,-0.3484,-0.0069,0.4166,"(0.0, 0.0, 0.0, 0.0, 0.0, 0.0, 0.0, 0.0, 0.0)","b'$VNYMR,+133.551,+005.725,+004.916,-00.3484,-00.0069,+00.4166,+00.956,-00.830,-09.420,-00.000923,-00.001092,-00.000386*67\r\n'"
1666453758.4843714,5413,1666453758,464464187,IMU1_Frame,0,1666453758,464483022,IMU1_Frame,0.02895507138784432,0.059045763815422043,0.9161237246700408,0.39546494498636586,"(0.0, 0.0, 0.0, 0.0, 0.0, 0.0, 0.0, 0.0, 0.0)",-0.000279,0.0,0.0,"(0.0, 0.0, 0.0, 0.0, 0.0, 0.0, 0.0, 0.0, 0.0)",0.947,-0.827,-9.418,"(0.0, 0.0, 0.0, 0.0, 0.0, 0.0, 0.0, 0.0, 0.0)",0,1666453758,464499235,IMU1_Frame,-0.3451,-0.0069,0.4205,"(0.0, 0.0, 0.0, 0.0, 0.0, 0.0, 0.0, 0.0, 0.0)","b'$VNYMR,+133.549,+005.725,+004.917,-00.3451,-00.0069,+00.4205,+00.947,-00.827,-09.418,-00.000819,+00.000089,-00.000279*68\r\n'"
1666453758.4901612,5414,1666453758,489473581,IMU1_Frame,0,1666453758,489492893,IMU1_Frame,0.02895697685431983,0.059038527237612146,0.916113886351268,0.39548867623163153,"(0.0, 0.0, 0.0, 0.0, 0.0, 0.0, 0.0, 0.0, 0.0)",-0.001087,0.0,0.0,"(0.0, 0.0, 0.0, 0.0, 0.0, 0.0, 0.0, 0.0, 0.0)",0.951,-0.789,-9.41,"(0.0, 0.0, 0.0, 0.0, 0.0, 0.0, 0.0, 0.0, 0.0)",0,1666453758,489508867,IMU1_Frame,-0.3496,-0.0069,0.4153,"(0.0, 0.0, 0.0, 0.0, 0.0, 0.0, 0.0, 0.0, 0.0)","b'$VNYMR,+133.546,+005.725,+004.916,-00.3496,-00.0069,+00.4153,+00.951,-00.789,-09.410,-00.000832,-00.001506,-00.001087*67\r\n'"
1666453758.5363004,5415,1666453758,514532327,IMU1_Frame,0,1666453758,514552593,IMU1_Frame,0.028951388574696216,0.0590276209936176,0.9161080462748721,0.39550424095054615,"(0.0, 0.0, 0.0, 0.0, 0.0, 0.0, 0.0, 0.0, 0.0)",-0.002003,0.0,0.0,"(0.0, 0.0, 0.0, 0.0, 0.0, 0.0, 0.0, 0.0, 0.0)",0.937,-0.809,-9.416,"(0.0, 0.0, 0.0, 0.0, 0.0, 0.0, 0.0, 0.0, 0.0)",0,1666453758,514568328,IMU1_Frame,-0.3484,-0.0022,0.4215,"(0.0, 0.0, 0.0, 0.0, 0.0, 0.0, 0.0, 0.0, 0.0)","b'$VNYMR,+133.544,+005.724,+004.915,-00.3484,-00.0022,+00.4215,+00.937,-00.809,-09.416,-00.000554,-00.000776,-00.002003*6D\r\n'"
1666453758.580385,5416,1666453758,539407014,IMU1_Frame,0,1666453758,539427280,IMU1_Frame,0.028962334213105637,0.059023296277343755,0.9161045624583761,0.3955121544737058,"(0.0, 0.0, 0.0, 0.0, 0.0, 0.0, 0.0, 0.0, 0.0)",-0.000106,0.0,0.0,"(0.0, 0.0, 0.0, 0.0, 0.0, 0.0, 0.0, 0.0, 0.0)",0.95,-0.809,-9.385,"(0.0, 0.0, 0.0, 0.0, 0.0, 0.0, 0.0, 0.0, 0.0)",0,1666453758,539443254,IMU1_Frame,-0.3495,-0.0068,0.4228,"(0.0, 0.0, 0.0, 0.0, 0.0, 0.0, 0.0, 0.0, 0.0)","b'$VNYMR,+133.543,+005.725,+004.914,-00.3495,-00.0068,+00.4228,+00.950,-00.809,-09.385,+00.000171,+00.000482,-00.000106*6B\r\n'"
1666453758.58044,5417,1666453758,564427614,IMU1_Frame,0,1666453758,564447402,IMU1_Frame,0.028969313254404282,0.05902721905216862,0.9160971118202597,0.39552831506115216,"(0.0, 0.0, 0.0, 0.0, 0.0, 0.0, 0.0, 0.0, 0.0)",-0.001036,0.0,0.0,"(0.0, 0.0, 0.0, 0.0, 0.0, 0.0, 0.0, 0.0, 0.0)",0.963,-0.819,-9.404,"(0.0, 0.0, 0.0, 0.0, 0.0, 0.0, 0.0, 0.0, 0.0)",0,1666453758,564463615,IMU1_Frame,-0.3473,-0.0046,0.4191,"(0.0, 0.0, 0.0, 0.0, 0.0, 0.0, 0.0, 0.0, 0.0)","b'$VNYMR,+133.541,+005.726,+004.914,-00.3473,-00.0046,+00.4191,+00.963,-00.819,-09.404,-00.000646,+00.000847,-00.001036*63\r\n'"
1666453758.6244016,5418,1666453758,589466810,IMU1_Frame,0,1666453758,589486122,IMU1_Frame,0.02896828303067194,0.059027724653076014,0.9160902084093477,0.39554430391177836,"(0.0, 0.0, 0.0, 0.0, 0.0, 0.0, 0.0, 0.0, 0.0)",-0.000834,0.0,0.0,"(0.0, 0.0, 0.0, 0.0, 0.0, 0.0, 0.0, 0.0, 0.0)",0.972,-0.824,-9.446,"(0.0, 0.0, 0.0, 0.0, 0.0, 0.0, 0.0, 0.0, 0.0)",0,1666453758,589501619,IMU1_Frame,-0.3495,-0.0068,0.4203,"(0.0, 0.0, 0.0, 0.0, 0.0, 0.0, 0.0, 0.0, 0.0)","b'$VNYMR,+133.539,+005.726,+004.914,-00.3495,-00.0068,+00.4203,+00.972,-00.824,-09.446,-00.000036,+00.001348,-00.000834*67\r\n'"
1666453758.6244507,5419,1666453758,614492416,IMU1_Frame,0,1666453758,614512681,IMU1_Frame,0.028971809955833046,0.0590396421347221,0.9160822419511762,0.3955607170412575,"(0.0, 0.0, 0.0, 0.0, 0.0, 0.0, 0.0, 0.0, 0.0)",-0.000157,0.0,0.0,"(0.0, 0.0, 0.0, 0.0, 0.0, 0.0, 0.0, 0.0, 0.0)",0.975,-0.828,-9.4,"(0.0, 0.0, 0.0, 0.0, 0.0, 0.0, 0.0, 0.0, 0.0)",0,1666453758,614529132,IMU1_Frame,-0.3473,-0.0057,0.4228,"(0.0, 0.0, 0.0, 0.0, 0.0, 0.0, 0.0, 0.0, 0.0)","b'$VNYMR,+133.537,+005.727,+004.915,-00.3473,-00.0057,+00.4228,+00.975,-00.828,-09.400,+00.000215,-00.000779,-00.000157*65\r\n'"
1666453758.6683528,5420,1666453758,639429807,IMU1_Frame,0,1666453758,639450073,IMU1_Frame,0.028979303778196172,0.05904331259062907,0.9160782423117451,0.39556888294439957,"(0.0, 0.0, 0.0, 0.0, 0.0, 0.0, 0.0, 0.0, 0.0)",1e-05,0.0,0.0,"(0.0, 0.0, 0.0, 0.0, 0.0, 0.0, 0.0, 0.0, 0.0)",0.949,-0.814,-9.442,"(0.0, 0.0, 0.0, 0.0, 0.0, 0.0, 0.0, 0.0, 0.0)",0,1666453758,639466285,IMU1_Frame,-0.3495,-0.0045,0.419,"(0.0, 0.0, 0.0, 0.0, 0.0, 0.0, 0.0, 0.0, 0.0)","b'$VNYMR,+133.536,+005.728,+004.915,-00.3495,-00.0045,+00.4190,+00.949,-00.814,-09.442,-00.000606,+00.000209,+00.000010*66\r\n'"
1666453758.6684082,5421,1666453758,664511680,IMU1_Frame,0,1666453758,664531707,IMU1_Frame,0.028971369010684818,0.05905980681794217,0.9160703075442338,0.3955853771717135,"(0.0, 0.0, 0.0, 0.0, 0.0, 0.0, 0.0, 0.0, 0.0)",-6.1e-05,0.0,0.0,"(0.0, 0.0, 0.0, 0.0, 0.0, 0.0, 0.0, 0.0, 0.0)",0.964,-0.818,-9.411,"(0.0, 0.0, 0.0, 0.0, 0.0, 0.0, 0.0, 0.0, 0.0)",0,1666453758,664548158,IMU1_Frame,-0.3495,-0.0045,0.4227,"(0.0, 0.0, 0.0, 0.0, 0.0, 0.0, 0.0, 0.0, 0.0)","b'$VNYMR,+133.534,+005.728,+004.917,-00.3495,-00.0045,+00.4227,+00.964,-00.818,-09.411,+00.001981,-00.000645,-00.000061*61\r\n'"
1666453758.7124007,5422,1666453758,689519405,IMU1_Frame,0,1666453758,689539432,IMU1_Frame,0.028970338218188254,0.05906031245472531,0.9160634031374043,0.395601365554508,"(0.0, 0.0, 0.0, 0.0, 0.0, 0.0, 0.0, 0.0, 0.0)",-0.000911,0.0,0.0,"(0.0, 0.0, 0.0, 0.0, 0.0, 0.0, 0.0, 0.0, 0.0)",0.959,-0.816,-9.39,"(0.0, 0.0, 0.0, 0.0, 0.0, 0.0, 0.0, 0.0, 0.0)",0,1666453758,689555406,IMU1_Frame,-0.3473,-0.008,0.4216,"(0.0, 0.0, 0.0, 0.0, 0.0, 0.0, 0.0, 0.0, 0.0)","b'$VNYMR,+133.532,+005.728,+004.917,-00.3473,-00.0080,+00.4216,+00.959,-00.816,-09.390,-00.000746,-00.000518,-00.000911*6D\r\n'"
1666453758.7150583,5423,1666453758,714410305,IMU1_Frame,0,1666453758,714430093,IMU1_Frame,0.028961813929217133,0.05905714729505521,0.916060498582585,0.395609187992298,"(0.0, 0.0, 0.0, 0.0, 0.0, 0.0, 0.0, 0.0, 0.0)",-0.000525,0.0,0.0,"(0.0, 0.0, 0.0, 0.0, 0.0, 0.0, 0.0, 0.0, 0.0)",0.951,-0.818,-9.391,"(0.0, 0.0, 0.0, 0.0, 0.0, 0.0, 0.0, 0.0, 0.0)",0,1666453758,714446544,IMU1_Frame,-0.3484,-0.0045,0.4203,"(0.0, 0.0, 0.0, 0.0, 0.0, 0.0, 0.0, 0.0, 0.0)","b'$VNYMR,+133.531,+005.727,+004.917,-00.3484,-00.0045,+00.4203,+00.951,-00.818,-09.391,+00.000031,-00.001957,-00.000525*6F\r\n'"
1666453758.7603729,5424,1666453758,739374399,IMU1_Frame,0,1666453758,739394903,IMU1_Frame,0.028960783183138352,0.059057652765070724,0.9160535937601798,0.39562517620389015,"(0.0, 0.0, 0.0, 0.0, 0.0, 0.0, 0.0, 0.0, 0.0)",-0.0013,0.0,0.0,"(0.0, 0.0, 0.0, 0.0, 0.0, 0.0, 0.0, 0.0, 0.0)",0.968,-0.826,-9.429,"(0.0, 0.0, 0.0, 0.0, 0.0, 0.0, 0.0, 0.0, 0.0)",0,1666453758,739410877,IMU1_Frame,-0.3472,0.0036,0.4177,"(0.0, 0.0, 0.0, 0.0, 0.0, 0.0, 0.0, 0.0, 0.0)","b'$VNYMR,+133.529,+005.727,+004.917,-00.3472,+00.0036,+00.4177,+00.968,-00.826,-09.429,-00.000357,-00.000647,-00.001300*64\r\n'"
1666453758.8043501,5425,1666453758,764566183,IMU1_Frame,0,1666453758,764586687,IMU1_Frame,0.02896827660671953,0.05906132367431826,0.9160495934866008,0.395633341958571,"(0.0, 0.0, 0.0, 0.0, 0.0, 0.0, 0.0, 0.0, 0.0)",-0.000373,0.0,0.0,"(0.0, 0.0, 0.0, 0.0, 0.0, 0.0, 0.0, 0.0, 0.0)",0.941,-0.818,-9.444,"(0.0, 0.0, 0.0, 0.0, 0.0, 0.0, 0.0, 0.0, 0.0)",0,1666453758,764603376,IMU1_Frame,-0.3462,-0.0057,0.4229,"(0.0, 0.0, 0.0, 0.0, 0.0, 0.0, 0.0, 0.0, 0.0)","b'$VNYMR,+133.528,+005.728,+004.917,-00.3462,-00.0057,+00.4229,+00.941,-00.818,-09.444,+00.000357,+00.000483,-00.000373*60\r\n'"
1666453758.8044503,5426,1666453758,789624929,IMU1_Frame,0,1666453758,789645195,IMU1_Frame,0.02896834913491203,0.059081235515835516,0.916041109389575,0.39565000728754823,"(0.0, 0.0, 0.0, 0.0, 0.0, 0.0, 0.0, 0.0, 0.0)",-0.000565,0.0,0.0,"(0.0, 0.0, 0.0, 0.0, 0.0, 0.0, 0.0, 0.0, 0.0)",0.948,-0.813,-9.418,"(0.0, 0.0, 0.0, 0.0, 0.0, 0.0, 0.0, 0.0, 0.0)",0,1666453758,789662837,IMU1_Frame,-0.3474,-0.0115,0.4229,"(0.0, 0.0, 0.0, 0.0, 0.0, 0.0, 0.0, 0.0, 0.0)","b'$VNYMR,+133.526,+005.729,+004.919,-00.3474,-00.0115,+00.4229,+00.948,-00.813,-09.418,-00.000689,-00.001143,-00.000565*65\r\n'"
1666453758.8482594,5427,1666453758,814716339,IMU1_Frame,0,1666453758,814737558,IMU1_Frame,0.028963865130134377,0.05908973500411766,0.9160336882344065,0.39566624793320027,"(0.0, 0.0, 0.0, 0.0, 0.0, 0.0, 0.0, 0.0, 0.0)",0.00044,0.0,0.0,"(0.0, 0.0, 0.0, 0.0, 0.0, 0.0, 0.0, 0.0, 0.0)",0.993,-0.813,-9.421,"(0.0, 0.0, 0.0, 0.0, 0.0, 0.0, 0.0, 0.0, 0.0)",0,1666453758,814754009,IMU1_Frame,-0.3484,-0.0056,0.4253,"(0.0, 0.0, 0.0, 0.0, 0.0, 0.0, 0.0, 0.0, 0.0)","b'$VNYMR,+133.524,+005.729,+004.920,-00.3484,-00.0056,+00.4253,+00.993,-00.813,-09.421,+00.000883,-00.001191,+00.000440*68\r\n'"
1666453758.848312,5428,1666453758,839584112,IMU1_Frame,0,1666453758,839603900,IMU1_Frame,0.02897481102522276,0.059085412397068555,0.9160302030182755,0.39567416080181167,"(0.0, 0.0, 0.0, 0.0, 0.0, 0.0, 0.0, 0.0, 0.0)",-0.000889,0.0,0.0,"(0.0, 0.0, 0.0, 0.0, 0.0, 0.0, 0.0, 0.0, 0.0)",0.942,-0.82,-9.401,"(0.0, 0.0, 0.0, 0.0, 0.0, 0.0, 0.0, 0.0, 0.0)",0,1666453758,839619636,IMU1_Frame,-0.3495,-0.008,0.4265,"(0.0, 0.0, 0.0, 0.0, 0.0, 0.0, 0.0, 0.0, 0.0)","b'$VNYMR,+133.523,+005.730,+004.919,-00.3495,-00.0080,+00.4265,+00.942,-00.820,-09.401,-00.000030,+00.000313,-00.000889*6B\r\n'"
1666453758.8923194,5429,1666453758,864633321,IMU1_Frame,0,1666453758,864653110,IMU1_Frame,0.028965771202122834,0.059082499442272327,0.916023845029292,0.395689976744511,"(0.0, 0.0, 0.0, 0.0, 0.0, 0.0, 0.0, 0.0, 0.0)",-0.001048,0.0,0.0,"(0.0, 0.0, 0.0, 0.0, 0.0, 0.0, 0.0, 0.0, 0.0)",0.956,-0.816,-9.417,"(0.0, 0.0, 0.0, 0.0, 0.0, 0.0, 0.0, 0.0, 0.0)",0,1666453758,864669084,IMU1_Frame,-0.3495,-0.0068,0.424,"(0.0, 0.0, 0.0, 0.0, 0.0, 0.0, 0.0, 0.0, 0.0)","b'$VNYMR,+133.521,+005.729,+004.919,-00.3495,-00.0068,+00.4240,+00.956,-00.816,-09.417,-00.000980,-00.000397,-00.001048*6B\r\n'"
1666453758.8923824,5430,1666453758,889591693,IMU1_Frame,0,1666453758,889623880,IMU1_Frame,0.028976717279424306,0.059078177152204044,0.9160203595682848,0.3956978894263545,"(0.0, 0.0, 0.0, 0.0, 0.0, 0.0, 0.0, 0.0, 0.0)",-0.000542,0.0,0.0,"(0.0, 0.0, 0.0, 0.0, 0.0, 0.0, 0.0, 0.0, 0.0)",0.989,-0.814,-9.385,"(0.0, 0.0, 0.0, 0.0, 0.0, 0.0, 0.0, 0.0, 0.0)",0,1666453758,889659643,IMU1_Frame,-0.3451,-0.0069,0.4217,"(0.0, 0.0, 0.0, 0.0, 0.0, 0.0, 0.0, 0.0, 0.0)","b'$VNYMR,+133.520,+005.730,+004.918,-00.3451,-00.0069,+00.4217,+00.989,-00.814,-09.385,+00.000694,+00.000649,-00.000542*66\r\n'"
1666453758.9363036,5431,1666453758,914560556,IMU1_Frame,0,1666453758,914580106,IMU1_Frame,0.028987147915212178,0.059074108021081546,0.9160134207396506,0.3957137956176142,"(0.0, 0.0, 0.0, 0.0, 0.0, 0.0, 0.0, 0.0, 0.0)",-0.000945,0.0,0.0,"(0.0, 0.0, 0.0, 0.0, 0.0, 0.0, 0.0, 0.0, 0.0)",0.971,-0.802,-9.445,"(0.0, 0.0, 0.0, 0.0, 0.0, 0.0, 0.0, 0.0, 0.0)",0,1666453758,914597034,IMU1_Frame,-0.3485,-0.0104,0.4167,"(0.0, 0.0, 0.0, 0.0, 0.0, 0.0, 0.0, 0.0, 0.0)","b'$VNYMR,+133.518,+005.731,+004.917,-00.3485,-00.0104,+00.4167,+00.971,-00.802,-09.445,-00.001051,-00.001260,-00.000945*64\r\n'"
1666453758.9401758,5432,1666453758,939481496,IMU1_Frame,0,1666453758,939501523,IMU1_Frame,0.028999711640150333,0.05908893945361796,0.9160118089530009,0.3957143917242406,"(0.0, 0.0, 0.0, 0.0, 0.0, 0.0, 0.0, 0.0, 0.0)",0.00098,0.0,0.0,"(0.0, 0.0, 0.0, 0.0, 0.0, 0.0, 0.0, 0.0, 0.0)",0.977,-0.822,-9.38,"(0.0, 0.0, 0.0, 0.0, 0.0, 0.0, 0.0, 0.0, 0.0)",0,1666453758,939518213,IMU1_Frame,-0.3484,-0.0021,0.4252,"(0.0, 0.0, 0.0, 0.0, 0.0, 0.0, 0.0, 0.0, 0.0)","b'$VNYMR,+133.518,+005.733,+004.918,-00.3484,-00.0021,+00.4252,+00.977,-00.822,-09.380,+00.000708,-00.000874,+00.000980*6C\r\n'"
1666453758.9803555,5433,1666453758,964578151,IMU1_Frame,0,1666453758,964598417,IMU1_Frame,0.029003235364749004,0.0591008582166588,0.9160038383529526,0.3957308037278488,"(0.0, 0.0, 0.0, 0.0, 0.0, 0.0, 0.0, 0.0, 0.0)",8.5e-05,0.0,0.0,"(0.0, 0.0, 0.0, 0.0, 0.0, 0.0, 0.0, 0.0, 0.0)",0.964,-0.801,-9.408,"(0.0, 0.0, 0.0, 0.0, 0.0, 0.0, 0.0, 0.0, 0.0)",0,1666453758,964615345,IMU1_Frame,-0.3484,-0.0068,0.4228,"(0.0, 0.0, 0.0, 0.0, 0.0, 0.0, 0.0, 0.0, 0.0)","b'$VNYMR,+133.516,+005.734,+004.919,-00.3484,-00.0068,+00.4228,+00.964,-00.801,-09.408,+00.001054,+00.000028,+00.000085*64\r\n'"
1666453759.0243773,5434,1666453758,989506006,IMU1_Frame,0,1666453758,989526033,IMU1_Frame,0.0290022038557651,0.05910136440960846,0.9159969314079609,0.3957467909505149,"(0.0, 0.0, 0.0, 0.0, 0.0, 0.0, 0.0, 0.0, 0.0)",-0.00095,0.0,0.0,"(0.0, 0.0, 0.0, 0.0, 0.0, 0.0, 0.0, 0.0, 0.0)",0.947,-0.796,-9.416,"(0.0, 0.0, 0.0, 0.0, 0.0, 0.0, 0.0, 0.0, 0.0)",0,1666453758,989541292,IMU1_Frame,-0.3484,-0.0034,0.419,"(0.0, 0.0, 0.0, 0.0, 0.0, 0.0, 0.0, 0.0, 0.0)","b'$VNYMR,+133.514,+005.734,+004.919,-00.3484,-00.0034,+00.4190,+00.947,-00.796,-09.416,-00.000191,-00.001953,-00.000950*6A\r\n'"
1666453759.0244253,5435,1666453759,14519691,IMU1_Frame,0,1666453759,14539957,IMU1_Frame,0.028997202823096986,0.05911011715380467,0.9159860546690909,0.39577102462188013,"(0.0, 0.0, 0.0, 0.0, 0.0, 0.0, 0.0, 0.0, 0.0)",-0.000149,0.0,0.0,"(0.0, 0.0, 0.0, 0.0, 0.0, 0.0, 0.0, 0.0, 0.0)",0.95,-0.821,-9.397,"(0.0, 0.0, 0.0, 0.0, 0.0, 0.0, 0.0, 0.0, 0.0)",0,1666453759,14556884,IMU1_Frame,-0.3462,-0.0058,0.4117,"(0.0, 0.0, 0.0, 0.0, 0.0, 0.0, 0.0, 0.0, 0.0)","b'$VNYMR,+133.511,+005.734,+004.920,-00.3462,-00.0058,+00.4117,+00.950,-00.821,-09.397,-00.001244,-00.000006,-00.000149*61\r\n'"
1666453759.0682912,5436,1666453759,39424657,IMU1_Frame,0,1666453759,39444684,IMU1_Frame,0.02900417936563748,0.05911404270446612,0.9159785986581066,0.3957871831360786,"(0.0, 0.0, 0.0, 0.0, 0.0, 0.0, 0.0, 0.0, 0.0)",-0.000702,0.0,0.0,"(0.0, 0.0, 0.0, 0.0, 0.0, 0.0, 0.0, 0.0, 0.0)",0.928,-0.833,-9.385,"(0.0, 0.0, 0.0, 0.0, 0.0, 0.0, 0.0, 0.0, 0.0)",0,1666453759,39461612,IMU1_Frame,-0.3474,-0.0116,0.4204,"(0.0, 0.0, 0.0, 0.0, 0.0, 0.0, 0.0, 0.0, 0.0)","b'$VNYMR,+133.509,+005.735,+004.920,-00.3474,-00.0116,+00.4204,+00.928,-00.833,-09.385,-00.000503,-00.000625,-00.000702*60\r\n'"
1666453759.068352,5437,1666453759,64570665,IMU1_Frame,0,1666453759,64590930,IMU1_Frame,0.02899910927580657,0.05910288288043563,0.9159762088988229,0.3957947518951853,"(0.0, 0.0, 0.0, 0.0, 0.0, 0.0, 0.0, 0.0, 0.0)",-0.000719,0.0,0.0,"(0.0, 0.0, 0.0, 0.0, 0.0, 0.0, 0.0, 0.0, 0.0)",0.946,-0.819,-9.427,"(0.0, 0.0, 0.0, 0.0, 0.0, 0.0, 0.0, 0.0, 0.0)",0,1666453759,64607143,IMU1_Frame,-0.3462,-0.0057,0.4241,"(0.0, 0.0, 0.0, 0.0, 0.0, 0.0, 0.0, 0.0, 0.0)","b'$VNYMR,+133.508,+005.734,+004.919,-00.3462,-00.0057,+00.4241,+00.946,-00.819,-09.427,-00.000051,-00.001437,-00.000719*6F\r\n'"
1666453759.112281,5438,1666453759,89526891,IMU1_Frame,0,1666453759,89546680,IMU1_Frame,0.028983161402157138,0.05911595600014402,0.91596881747807,0.39581107299967194,"(0.0, 0.0, 0.0, 0.0, 0.0, 0.0, 0.0, 0.0, 0.0)",-6e-05,0.0,0.0,"(0.0, 0.0, 0.0, 0.0, 0.0, 0.0, 0.0, 0.0, 0.0)",0.939,-0.795,-9.421,"(0.0, 0.0, 0.0, 0.0, 0.0, 0.0, 0.0, 0.0, 0.0)",0,1666453759,89563131,IMU1_Frame,-0.3473,-0.0069,0.4229,"(0.0, 0.0, 0.0, 0.0, 0.0, 0.0, 0.0, 0.0, 0.0)","b'$VNYMR,+133.506,+005.733,+004.921,-00.3473,-00.0069,+00.4229,+00.939,-00.795,-09.421,-00.000064,-00.000053,-00.000060*63\r\n'"
1666453759.1160917,5439,1666453759,115057706,IMU1_Frame,0,1666453759,115091085,IMU1_Frame,0.02898161374011589,0.05911671475727663,0.915958454854514,0.3958350528715928,"(0.0, 0.0, 0.0, 0.0, 0.0, 0.0, 0.0, 0.0, 0.0)",-0.001238,0.0,0.0,"(0.0, 0.0, 0.0, 0.0, 0.0, 0.0, 0.0, 0.0, 0.0)",0.937,-0.811,-9.434,"(0.0, 0.0, 0.0, 0.0, 0.0, 0.0, 0.0, 0.0, 0.0)",0,1666453759,115123271,IMU1_Frame,-0.3483,0.0072,0.4214,"(0.0, 0.0, 0.0, 0.0, 0.0, 0.0, 0.0, 0.0, 0.0)","b'$VNYMR,+133.503,+005.733,+004.921,-00.3483,+00.0072,+00.4214,+00.937,-00.811,-09.434,+00.000318,+00.000606,-00.001238*62\r\n'"
1666453759.1563745,5440,1666453759,139605522,IMU1_Frame,0,1666453759,139625787,IMU1_Frame,0.028973605703129242,0.05911329487075241,0.9159590031178424,0.3958348811682108,"(0.0, 0.0, 0.0, 0.0, 0.0, 0.0, 0.0, 0.0, 0.0)",-0.000267,0.0,0.0,"(0.0, 0.0, 0.0, 0.0, 0.0, 0.0, 0.0, 0.0, 0.0)",0.951,-0.799,-9.408,"(0.0, 0.0, 0.0, 0.0, 0.0, 0.0, 0.0, 0.0, 0.0)",0,1666453759,139642477,IMU1_Frame,-0.3484,-0.008,0.4253,"(0.0, 0.0, 0.0, 0.0, 0.0, 0.0, 0.0, 0.0, 0.0)","b'$VNYMR,+133.503,+005.732,+004.921,-00.3484,-00.0080,+00.4253,+00.951,-00.799,-09.408,+00.000310,+00.000884,-00.000267*6B\r\n'"
1666453759.2003353,5441,1666453759,164435386,IMU1_Frame,0,1666453759,164455413,IMU1_Frame,0.02897199058593378,0.059094141291302554,0.915957128493895,0.3958421970782681,"(0.0, 0.0, 0.0, 0.0, 0.0, 0.0, 0.0, 0.0, 0.0)",-0.002066,0.0,0.0,"(0.0, 0.0, 0.0, 0.0, 0.0, 0.0, 0.0, 0.0, 0.0)",0.971,-0.809,-9.436,"(0.0, 0.0, 0.0, 0.0, 0.0, 0.0, 0.0, 0.0, 0.0)",0,1666453759,164471626,IMU1_Frame,-0.3473,-0.0092,0.4241,"(0.0, 0.0, 0.0, 0.0, 0.0, 0.0, 0.0, 0.0, 0.0)","b'$VNYMR,+133.502,+005.731,+004.919,-00.3473,-00.0092,+00.4241,+00.971,-00.809,-09.436,-00.000900,-00.002149,-00.002066*63\r\n'"
1666453759.2003818,5442,1666453759,189467430,IMU1_Frame,0,1666453759,189486503,IMU1_Frame,0.028974996831120453,0.05910631307249331,0.9159457011506323,0.3958666010884089,"(0.0, 0.0, 0.0, 0.0, 0.0, 0.0, 0.0, 0.0, 0.0)",-0.000756,0.0,0.0,"(0.0, 0.0, 0.0, 0.0, 0.0, 0.0, 0.0, 0.0, 0.0)",0.953,-0.825,-9.435,"(0.0, 0.0, 0.0, 0.0, 0.0, 0.0, 0.0, 0.0, 0.0)",0,1666453759,189502239,IMU1_Frame,-0.3484,-0.0045,0.4228,"(0.0, 0.0, 0.0, 0.0, 0.0, 0.0, 0.0, 0.0, 0.0)","b'$VNYMR,+133.499,+005.732,+004.920,-00.3484,-00.0045,+00.4228,+00.953,-00.825,-09.435,-00.000788,+00.000255,-00.000756*6B\r\n'"
1666453759.2483194,5443,1666453759,214530229,IMU1_Frame,0,1666453759,214550256,IMU1_Frame,0.028966988909810816,0.05910289289715296,0.915946249320354,0.39586642944390027,"(0.0, 0.0, 0.0, 0.0, 0.0, 0.0, 0.0, 0.0, 0.0)",0.000486,0.0,0.0,"(0.0, 0.0, 0.0, 0.0, 0.0, 0.0, 0.0, 0.0, 0.0)",0.959,-0.816,-9.383,"(0.0, 0.0, 0.0, 0.0, 0.0, 0.0, 0.0, 0.0, 0.0)",0,1666453759,214566946,IMU1_Frame,-0.3484,-0.0068,0.4228,"(0.0, 0.0, 0.0, 0.0, 0.0, 0.0, 0.0, 0.0, 0.0)","b'$VNYMR,+133.499,+005.731,+004.920,-00.3484,-00.0068,+00.4228,+00.959,-00.816,-09.383,+00.001098,-00.001843,+00.000486*64\r\n'"
1666453759.2483697,5444,1666453759,239475727,IMU1_Frame,0,1666453759,239494562,IMU1_Frame,0.028977419953131942,0.0590988256965039,0.9159393076049611,0.39588233443574933,"(0.0, 0.0, 0.0, 0.0, 0.0, 0.0, 0.0, 0.0, 0.0)",-0.001733,0.0,0.0,"(0.0, 0.0, 0.0, 0.0, 0.0, 0.0, 0.0, 0.0, 0.0)",0.977,-0.808,-9.431,"(0.0, 0.0, 0.0, 0.0, 0.0, 0.0, 0.0, 0.0, 0.0)",0,1666453759,239510297,IMU1_Frame,-0.3484,-0.0068,0.424,"(0.0, 0.0, 0.0, 0.0, 0.0, 0.0, 0.0, 0.0, 0.0)","b'$VNYMR,+133.497,+005.732,+004.919,-00.3484,-00.0068,+00.4240,+00.977,-00.808,-09.431,-00.000261,+00.000658,-00.001733*6A\r\n'"
1666453759.296364,5445,1666453759,265279054,IMU1_Frame,0,1666453759,265301227,IMU1_Frame,0.028989465078447393,0.05911391237234927,0.9159342405156747,0.3958909235249954,"(0.0, 0.0, 0.0, 0.0, 0.0, 0.0, 0.0, 0.0, 0.0)",0.000598,0.0,0.0,"(0.0, 0.0, 0.0, 0.0, 0.0, 0.0, 0.0, 0.0, 0.0)",0.945,-0.818,-9.425,"(0.0, 0.0, 0.0, 0.0, 0.0, 0.0, 0.0, 0.0, 0.0)",0,1666453759,265317678,IMU1_Frame,-0.3484,-0.0092,0.4241,"(0.0, 0.0, 0.0, 0.0, 0.0, 0.0, 0.0, 0.0, 0.0)","b'$VNYMR,+133.496,+005.734,+004.920,-00.3484,-00.0092,+00.4241,+00.945,-00.818,-09.425,+00.000480,-00.001693,+00.000598*6D\r\n'"
1666453759.2964115,5446,1666453759,289526462,IMU1_Frame,0,1666453759,289547443,IMU1_Frame,0.028976970634814556,0.059118990785563805,0.9159273632171466,0.39590699085948305,"(0.0, 0.0, 0.0, 0.0, 0.0, 0.0, 0.0, 0.0, 0.0)",7e-05,0.0,0.0,"(0.0, 0.0, 0.0, 0.0, 0.0, 0.0, 0.0, 0.0, 0.0)",0.953,-0.812,-9.414,"(0.0, 0.0, 0.0, 0.0, 0.0, 0.0, 0.0, 0.0, 0.0)",0,1666453759,289564371,IMU1_Frame,-0.3484,-0.0069,0.4216,"(0.0, 0.0, 0.0, 0.0, 0.0, 0.0, 0.0, 0.0, 0.0)","b'$VNYMR,+133.494,+005.733,+004.921,-00.3484,-00.0069,+00.4216,+00.953,-00.812,-09.414,-00.000138,-00.001450,+00.000070*6E\r\n'"
1666453759.3403356,5447,1666453759,314492464,IMU1_Frame,0,1666453759,314512968,IMU1_Frame,0.028979909732100125,0.059111250708885434,0.9159244241198603,0.3959147309361611,"(0.0, 0.0, 0.0, 0.0, 0.0, 0.0, 0.0, 0.0, 0.0)",-0.000859,0.0,0.0,"(0.0, 0.0, 0.0, 0.0, 0.0, 0.0, 0.0, 0.0, 0.0)",0.94,-0.817,-9.414,"(0.0, 0.0, 0.0, 0.0, 0.0, 0.0, 0.0, 0.0, 0.0)",0,1666453759,314528703,IMU1_Frame,-0.3485,-0.0092,0.4179,"(0.0, 0.0, 0.0, 0.0, 0.0, 0.0, 0.0, 0.0, 0.0)","b'$VNYMR,+133.493,+005.733,+004.920,-00.3485,-00.0092,+00.4179,+00.940,-00.817,-09.414,-00.000502,-00.000077,-00.000859*68\r\n'"
1666453759.3403823,5448,1666453759,339471101,IMU1_Frame,0,1666453759,339490413,IMU1_Frame,0.02898394651581871,0.05912291717082706,0.9159199048475615,0.3959231483679801,"(0.0, 0.0, 0.0, 0.0, 0.0, 0.0, 0.0, 0.0, 0.0)",0.000507,0.0,0.0,"(0.0, 0.0, 0.0, 0.0, 0.0, 0.0, 0.0, 0.0, 0.0)",0.928,-0.826,-9.415,"(0.0, 0.0, 0.0, 0.0, 0.0, 0.0, 0.0, 0.0, 0.0)",0,1666453759,339505672,IMU1_Frame,-0.3495,0.0002,0.4214,"(0.0, 0.0, 0.0, 0.0, 0.0, 0.0, 0.0, 0.0, 0.0)","b'$VNYMR,+133.492,+005.734,+004.921,-00.3495,+00.0002,+00.4214,+00.928,-00.826,-09.415,+00.000346,-00.000043,+00.000507*63\r\n'"
1666453759.384432,5449,1666453759,365096330,IMU1_Frame,0,1666453759,365117788,IMU1_Frame,0.028959988886171364,0.05913256714920333,0.9159130592624037,0.3959392963809506,"(0.0, 0.0, 0.0, 0.0, 0.0, 0.0, 0.0, 0.0, 0.0)",-0.001983,0.0,0.0,"(0.0, 0.0, 0.0, 0.0, 0.0, 0.0, 0.0, 0.0, 0.0)",0.96,-0.806,-9.386,"(0.0, 0.0, 0.0, 0.0, 0.0, 0.0, 0.0, 0.0, 0.0)",0,1666453759,365135192,IMU1_Frame,-0.3473,-0.0057,0.4204,"(0.0, 0.0, 0.0, 0.0, 0.0, 0.0, 0.0, 0.0, 0.0)","b'$VNYMR,+133.490,+005.732,+004.923,-00.3473,-00.0057,+00.4204,+00.960,-00.806,-09.386,+00.000490,-00.001000,-00.001983*64\r\n'"
1666453759.3914285,5450,1666453759,390708923,IMU1_Frame,0,1666453759,390730857,IMU1_Frame,0.028962412184347253,0.05912507979613467,0.9159066646770743,0.39595502928954196,"(0.0, 0.0, 0.0, 0.0, 0.0, 0.0, 0.0, 0.0, 0.0)",0.00037,0.0,0.0,"(0.0, 0.0, 0.0, 0.0, 0.0, 0.0, 0.0, 0.0, 0.0)",0.947,-0.81,-9.4,"(0.0, 0.0, 0.0, 0.0, 0.0, 0.0, 0.0, 0.0, 0.0)",0,1666453759,390748262,IMU1_Frame,-0.3484,-0.0081,0.4179,"(0.0, 0.0, 0.0, 0.0, 0.0, 0.0, 0.0, 0.0, 0.0)","b'$VNYMR,+133.488,+005.732,+004.922,-00.3484,-00.0081,+00.4179,+00.947,-00.810,-09.400,+00.000664,-00.000828,+00.000370*66\r\n'"
1666453759.4322863,5451,1666453759,414477348,IMU1_Frame,0,1666453759,414496660,IMU1_Frame,0.02896138025262294,0.05912558527658188,0.9158997538186231,0.3959710148161733,"(0.0, 0.0, 0.0, 0.0, 0.0, 0.0, 0.0, 0.0, 0.0)",-0.000946,0.0,0.0,"(0.0, 0.0, 0.0, 0.0, 0.0, 0.0, 0.0, 0.0, 0.0)",0.943,-0.833,-9.452,"(0.0, 0.0, 0.0, 0.0, 0.0, 0.0, 0.0, 0.0, 0.0)",0,1666453759,414512157,IMU1_Frame,-0.3484,-0.0057,0.4215,"(0.0, 0.0, 0.0, 0.0, 0.0, 0.0, 0.0, 0.0, 0.0)","b'$VNYMR,+133.486,+005.732,+004.922,-00.3484,-00.0057,+00.4215,+00.943,-00.833,-09.452,-00.000746,+00.000404,-00.000946*62\r\n'"
1666453759.4763541,5452,1666453759,439399719,IMU1_Frame,0,1666453759,439419031,IMU1_Frame,0.028952856783050953,0.0591224168659523,0.915896846535171,0.3959788358169638,"(0.0, 0.0, 0.0, 0.0, 0.0, 0.0, 0.0, 0.0, 0.0)",-0.001014,0.0,0.0,"(0.0, 0.0, 0.0, 0.0, 0.0, 0.0, 0.0, 0.0, 0.0)",0.944,-0.812,-9.371,"(0.0, 0.0, 0.0, 0.0, 0.0, 0.0, 0.0, 0.0, 0.0)",0,1666453759,439435720,IMU1_Frame,-0.3506,-0.0021,0.4202,"(0.0, 0.0, 0.0, 0.0, 0.0, 0.0, 0.0, 0.0, 0.0)","b'$VNYMR,+133.485,+005.731,+004.922,-00.3506,-00.0021,+00.4202,+00.944,-00.812,-09.371,-00.001383,-00.000252,-00.001014*6C\r\n'"
1666453759.4764054,5453,1666453759,464528560,IMU1_Frame,0,1666453759,464548110,IMU1_Frame,0.028945365189906435,0.05911874312363881,0.9159008502466728,0.39597067134186353,"(0.0, 0.0, 0.0, 0.0, 0.0, 0.0, 0.0, 0.0, 0.0)",0.000202,0.0,0.0,"(0.0, 0.0, 0.0, 0.0, 0.0, 0.0, 0.0, 0.0, 0.0)",0.947,-0.809,-9.409,"(0.0, 0.0, 0.0, 0.0, 0.0, 0.0, 0.0, 0.0, 0.0)",0,1666453759,464565038,IMU1_Frame,-0.3484,-0.0057,0.424,"(0.0, 0.0, 0.0, 0.0, 0.0, 0.0, 0.0, 0.0, 0.0)","b'$VNYMR,+133.486,+005.730,+004.922,-00.3484,-00.0057,+00.4240,+00.947,-00.809,-09.409,+00.000537,-00.000996,+00.000202*6C\r\n'"
1666453759.5202959,5454,1666453759,489515781,IMU1_Frame,0,1666453759,489536285,IMU1_Frame,0.02893235430498368,0.05912407225320184,0.9158905156387729,0.39599473016381387,"(0.0, 0.0, 0.0, 0.0, 0.0, 0.0, 0.0, 0.0, 0.0)",-0.000107,0.0,0.0,"(0.0, 0.0, 0.0, 0.0, 0.0, 0.0, 0.0, 0.0, 0.0)",0.954,-0.814,-9.384,"(0.0, 0.0, 0.0, 0.0, 0.0, 0.0, 0.0, 0.0, 0.0)",0,1666453759,489552736,IMU1_Frame,-0.3473,-0.008,0.4254,"(0.0, 0.0, 0.0, 0.0, 0.0, 0.0, 0.0, 0.0, 0.0)","b'$VNYMR,+133.483,+005.729,+004.923,-00.3473,-00.0080,+00.4254,+00.954,-00.814,-09.384,+00.000748,+00.000114,-00.000107*65\r\n'"
1666453759.520347,5455,1666453759,514544725,IMU1_Frame,0,1666453759,514565229,IMU1_Frame,0.028935294123596217,0.05911633210873467,0.9158875758201604,0.39600247030828056,"(0.0, 0.0, 0.0, 0.0, 0.0, 0.0, 0.0, 0.0, 0.0)",-3e-05,0.0,0.0,"(0.0, 0.0, 0.0, 0.0, 0.0, 0.0, 0.0, 0.0, 0.0)",0.969,-0.815,-9.417,"(0.0, 0.0, 0.0, 0.0, 0.0, 0.0, 0.0, 0.0, 0.0)",0,1666453759,514581441,IMU1_Frame,-0.3484,-0.0045,0.4215,"(0.0, 0.0, 0.0, 0.0, 0.0, 0.0, 0.0, 0.0, 0.0)","b'$VNYMR,+133.482,+005.729,+004.922,-00.3484,-00.0045,+00.4215,+00.969,-00.815,-09.417,-00.000893,-00.000539,-00.000030*64\r\n'"
1666453759.5643406,5456,1666453759,539549350,IMU1_Frame,0,1666453759,539567947,IMU1_Frame,0.0289422697000787,0.05912025861837646,0.9158801160153163,0.3960186272554296,"(0.0, 0.0, 0.0, 0.0, 0.0, 0.0, 0.0, 0.0, 0.0)",-0.000606,0.0,0.0,"(0.0, 0.0, 0.0, 0.0, 0.0, 0.0, 0.0, 0.0, 0.0)",0.924,-0.799,-9.366,"(0.0, 0.0, 0.0, 0.0, 0.0, 0.0, 0.0, 0.0, 0.0)",0,1666453759,539583921,IMU1_Frame,-0.3484,-0.008,0.4241,"(0.0, 0.0, 0.0, 0.0, 0.0, 0.0, 0.0, 0.0, 0.0)","b'$VNYMR,+133.480,+005.730,+004.922,-00.3484,-00.0080,+00.4241,+00.924,-00.799,-09.366,+00.000401,+00.000435,-00.000606*6C\r\n'"
1666453759.5651534,5457,1666453759,564495801,IMU1_Frame,0,1666453759,564515352,IMU1_Frame,0.028932714659459964,0.059117594592840786,0.9158702960809234,0.3960424330657419,"(0.0, 0.0, 0.0, 0.0, 0.0, 0.0, 0.0, 0.0, 0.0)",-0.001209,0.0,0.0,"(0.0, 0.0, 0.0, 0.0, 0.0, 0.0, 0.0, 0.0, 0.0)",0.938,-0.798,-9.414,"(0.0, 0.0, 0.0, 0.0, 0.0, 0.0, 0.0, 0.0, 0.0)",0,1666453759,564532041,IMU1_Frame,-0.3484,-0.008,0.4228,"(0.0, 0.0, 0.0, 0.0, 0.0, 0.0, 0.0, 0.0, 0.0)","b'$VNYMR,+133.477,+005.729,+004.922,-00.3484,-00.0080,+00.4228,+00.938,-00.798,-09.414,-00.000209,-00.000951,-00.001209*66\r\n'"
1666453759.608385,5458,1666453759,589473724,IMU1_Frame,0,1666453759,589493989,IMU1_Frame,0.0289466025866219,0.05910553657586513,0.9158638672968199,0.39605808453418084,"(0.0, 0.0, 0.0, 0.0, 0.0, 0.0, 0.0, 0.0, 0.0)",4e-06,0.0,0.0,"(0.0, 0.0, 0.0, 0.0, 0.0, 0.0, 0.0, 0.0, 0.0)",0.934,-0.829,-9.404,"(0.0, 0.0, 0.0, 0.0, 0.0, 0.0, 0.0, 0.0, 0.0)",0,1666453759,589510202,IMU1_Frame,-0.3506,-0.0044,0.4264,"(0.0, 0.0, 0.0, 0.0, 0.0, 0.0, 0.0, 0.0, 0.0)","b'$VNYMR,+133.475,+005.730,+004.920,-00.3506,-00.0044,+00.4264,+00.934,-00.829,-09.404,-00.001125,-00.000155,+00.000004*65\r\n'"
1666453759.6522279,5459,1666453759,615698337,IMU1_Frame,0,1666453759,615720987,IMU1_Frame,0.02893756384649412,0.05910261977919079,0.9158575027088816,0.396073897733387,"(0.0, 0.0, 0.0, 0.0, 0.0, 0.0, 0.0, 0.0, 0.0)",-0.001635,0.0,0.0,"(0.0, 0.0, 0.0, 0.0, 0.0, 0.0, 0.0, 0.0, 0.0)",0.948,-0.81,-9.427,"(0.0, 0.0, 0.0, 0.0, 0.0, 0.0, 0.0, 0.0, 0.0)",0,1666453759,615738391,IMU1_Frame,-0.3484,-0.0045,0.4228,"(0.0, 0.0, 0.0, 0.0, 0.0, 0.0, 0.0, 0.0, 0.0)","b'$VNYMR,+133.473,+005.729,+004.920,-00.3484,-00.0045,+00.4228,+00.948,-00.810,-09.427,-00.000449,-00.001355,-00.001635*67\r\n'"
1666453759.6522527,5460,1666453759,637962818,IMU1_Frame,0,1666453759,637972831,IMU1_Frame,0.02893704807773624,0.05910287230482326,0.91585404627721,0.39608189008275635,"(0.0, 0.0, 0.0, 0.0, 0.0, 0.0, 0.0, 0.0, 0.0)",0.00034,0.0,0.0,"(0.0, 0.0, 0.0, 0.0, 0.0, 0.0, 0.0, 0.0, 0.0)",0.966,-0.792,-9.445,"(0.0, 0.0, 0.0, 0.0, 0.0, 0.0, 0.0, 0.0, 0.0)",0,1666453759,637980699,IMU1_Frame,-0.3484,-0.0045,0.4215,"(0.0, 0.0, 0.0, 0.0, 0.0, 0.0, 0.0, 0.0, 0.0)","b'$VNYMR,+133.472,+005.729,+004.920,-00.3484,-00.0045,+00.4215,+00.966,-00.792,-09.445,-00.001126,-00.000997,+00.000340*6D\r\n'"
1666453759.6963727,5461,1666453759,663837671,IMU1_Frame,0,1666453759,663854598,IMU1_Frame,0.02893550075824142,0.059103629854715733,0.9158436765637188,0.3961058669498813,"(0.0, 0.0, 0.0, 0.0, 0.0, 0.0, 0.0, 0.0, 0.0)",-0.000202,0.0,0.0,"(0.0, 0.0, 0.0, 0.0, 0.0, 0.0, 0.0, 0.0, 0.0)",0.97,-0.81,-9.411,"(0.0, 0.0, 0.0, 0.0, 0.0, 0.0, 0.0, 0.0, 0.0)",0,1666453759,663867712,IMU1_Frame,-0.3484,-0.0045,0.4203,"(0.0, 0.0, 0.0, 0.0, 0.0, 0.0, 0.0, 0.0, 0.0)","b'$VNYMR,+133.469,+005.729,+004.920,-00.3484,-00.0045,+00.4203,+00.970,-00.810,-09.411,-00.000530,-00.001113,-00.000202*65\r\n'"
1666453759.6964197,5462,1666453759,689432382,IMU1_Frame,0,1666453759,689451694,IMU1_Frame,0.02894541724477295,0.05909981770365338,0.9158332739209538,0.39612976251116017,"(0.0, 0.0, 0.0, 0.0, 0.0, 0.0, 0.0, 0.0, 0.0)",-0.000939,0.0,0.0,"(0.0, 0.0, 0.0, 0.0, 0.0, 0.0, 0.0, 0.0, 0.0)",0.931,-0.831,-9.426,"(0.0, 0.0, 0.0, 0.0, 0.0, 0.0, 0.0, 0.0, 0.0)",0,1666453759,689466953,IMU1_Frame,-0.3462,-0.0046,0.4192,"(0.0, 0.0, 0.0, 0.0, 0.0, 0.0, 0.0, 0.0, 0.0)","b'$VNYMR,+133.466,+005.730,+004.919,-00.3462,-00.0046,+00.4192,+00.931,-00.831,-09.426,-00.001751,-00.000981,-00.000939*6F\r\n'"
1666453759.7403378,5463,1666453759,714706420,IMU1_Frame,0,1666453759,714727163,IMU1_Frame,0.02893292184834578,0.059104892347850345,0.9158263923129938,0.3961458277917778,"(0.0, 0.0, 0.0, 0.0, 0.0, 0.0, 0.0, 0.0, 0.0)",-0.000194,0.0,0.0,"(0.0, 0.0, 0.0, 0.0, 0.0, 0.0, 0.0, 0.0, 0.0)",0.92,-0.809,-9.409,"(0.0, 0.0, 0.0, 0.0, 0.0, 0.0, 0.0, 0.0, 0.0)",0,1666453759,714743375,IMU1_Frame,-0.3484,-0.0068,0.424,"(0.0, 0.0, 0.0, 0.0, 0.0, 0.0, 0.0, 0.0, 0.0)","b'$VNYMR,+133.464,+005.729,+004.920,-00.3484,-00.0068,+00.4240,+00.920,-00.809,-09.409,+00.000035,+00.000277,-00.000194*68\r\n'"
1666453759.7403822,5464,1666453759,739453077,IMU1_Frame,0,1666453759,739472150,IMU1_Frame,0.02892388344578594,0.05910197453928447,0.9158200261403766,0.39616164035935153,"(0.0, 0.0, 0.0, 0.0, 0.0, 0.0, 0.0, 0.0, 0.0)",-0.001243,0.0,0.0,"(0.0, 0.0, 0.0, 0.0, 0.0, 0.0, 0.0, 0.0, 0.0)",0.963,-0.8,-9.422,"(0.0, 0.0, 0.0, 0.0, 0.0, 0.0, 0.0, 0.0, 0.0)",0,1666453759,739487886,IMU1_Frame,-0.3484,-0.0058,0.4141,"(0.0, 0.0, 0.0, 0.0, 0.0, 0.0, 0.0, 0.0, 0.0)","b'$VNYMR,+133.462,+005.728,+004.920,-00.3484,-00.0058,+00.4141,+00.963,-00.800,-09.422,+00.000039,-00.001579,-00.001243*63\r\n'"
1666453759.784407,5465,1666453759,764482736,IMU1_Frame,0,1666453759,764502525,IMU1_Frame,0.02892388344578594,0.05910197453928447,0.9158200261403766,0.39616164035935153,"(0.0, 0.0, 0.0, 0.0, 0.0, 0.0, 0.0, 0.0, 0.0)",0.000359,0.0,0.0,"(0.0, 0.0, 0.0, 0.0, 0.0, 0.0, 0.0, 0.0, 0.0)",0.947,-0.814,-9.403,"(0.0, 0.0, 0.0, 0.0, 0.0, 0.0, 0.0, 0.0, 0.0)",0,1666453759,764518737,IMU1_Frame,-0.3495,-0.0045,0.4202,"(0.0, 0.0, 0.0, 0.0, 0.0, 0.0, 0.0, 0.0, 0.0)","b'$VNYMR,+133.462,+005.728,+004.920,-00.3495,-00.0045,+00.4202,+00.947,-00.814,-09.403,-00.000229,-00.000014,+00.000359*6C\r\n'"
1666453759.7902727,5466,1666453759,789486169,IMU1_Frame,0,1666453759,789505720,IMU1_Frame,0.028926309218212723,0.059094487367965395,0.9158136274074542,0.39617737195924063,"(0.0, 0.0, 0.0, 0.0, 0.0, 0.0, 0.0, 0.0, 0.0)",6.1e-05,0.0,0.0,"(0.0, 0.0, 0.0, 0.0, 0.0, 0.0, 0.0, 0.0, 0.0)",0.936,-0.821,-9.419,"(0.0, 0.0, 0.0, 0.0, 0.0, 0.0, 0.0, 0.0, 0.0)",0,1666453759,789521694,IMU1_Frame,-0.3495,-0.0021,0.4239,"(0.0, 0.0, 0.0, 0.0, 0.0, 0.0, 0.0, 0.0, 0.0)","b'$VNYMR,+133.460,+005.728,+004.919,-00.3495,-00.0021,+00.4239,+00.936,-00.821,-09.419,-00.000131,-00.002036,+00.000061*65\r\n'"
1666453759.8323731,5467,1666453759,814562082,IMU1_Frame,0,1666453759,814582586,IMU1_Frame,0.02892579352042422,0.05909473979538335,0.9158101700728013,0.39618536392572173,"(0.0, 0.0, 0.0, 0.0, 0.0, 0.0, 0.0, 0.0, 0.0)",-0.00028,0.0,0.0,"(0.0, 0.0, 0.0, 0.0, 0.0, 0.0, 0.0, 0.0, 0.0)",0.95,-0.825,-9.403,"(0.0, 0.0, 0.0, 0.0, 0.0, 0.0, 0.0, 0.0, 0.0)",0,1666453759,814598321,IMU1_Frame,-0.3473,-0.0045,0.4228,"(0.0, 0.0, 0.0, 0.0, 0.0, 0.0, 0.0, 0.0, 0.0)","b'$VNYMR,+133.459,+005.728,+004.919,-00.3473,-00.0045,+00.4228,+00.950,-00.825,-09.403,-00.000209,-00.000720,-00.000280*6B\r\n'"
1666453759.8762467,5468,1666453759,839421510,IMU1_Frame,0,1666453759,839440345,IMU1_Frame,0.028921304608127515,0.05910323652552007,0.9158027394561001,0.3962016001692505,"(0.0, 0.0, 0.0, 0.0, 0.0, 0.0, 0.0, 0.0, 0.0)",-0.000698,0.0,0.0,"(0.0, 0.0, 0.0, 0.0, 0.0, 0.0, 0.0, 0.0, 0.0)",0.958,-0.817,-9.397,"(0.0, 0.0, 0.0, 0.0, 0.0, 0.0, 0.0, 0.0, 0.0)",0,1666453759,839457035,IMU1_Frame,-0.3495,-0.0045,0.4215,"(0.0, 0.0, 0.0, 0.0, 0.0, 0.0, 0.0, 0.0, 0.0)","b'$VNYMR,+133.457,+005.728,+004.920,-00.3495,-00.0045,+00.4215,+00.958,-00.817,-09.397,-00.000355,-00.000659,-00.000698*60\r\n'"
1666453759.8763,5469,1666453759,864555358,IMU1_Frame,0,1666453759,864574909,IMU1_Frame,0.028913873667674478,0.05911947261301853,0.9157982502200518,0.3962100967433564,"(0.0, 0.0, 0.0, 0.0, 0.0, 0.0, 0.0, 0.0, 0.0)",-0.000712,0.0,0.0,"(0.0, 0.0, 0.0, 0.0, 0.0, 0.0, 0.0, 0.0, 0.0)",0.959,-0.809,-9.428,"(0.0, 0.0, 0.0, 0.0, 0.0, 0.0, 0.0, 0.0, 0.0)",0,1666453759,864591121,IMU1_Frame,-0.3484,-0.0033,0.4228,"(0.0, 0.0, 0.0, 0.0, 0.0, 0.0, 0.0, 0.0, 0.0)","b'$VNYMR,+133.456,+005.728,+004.922,-00.3484,-00.0033,+00.4228,+00.959,-00.809,-09.428,+00.000150,+00.000254,-00.000712*6C\r\n'"
1666453759.9203951,5470,1666453759,889486074,IMU1_Frame,0,1666453759,889504909,IMU1_Frame,0.02892136436293206,0.05912314818576358,0.915794244513712,0.3962182602399216,"(0.0, 0.0, 0.0, 0.0, 0.0, 0.0, 0.0, 0.0, 0.0)",-0.001909,0.0,0.0,"(0.0, 0.0, 0.0, 0.0, 0.0, 0.0, 0.0, 0.0, 0.0)",0.951,-0.819,-9.381,"(0.0, 0.0, 0.0, 0.0, 0.0, 0.0, 0.0, 0.0, 0.0)",0,1666453759,889520883,IMU1_Frame,-0.3473,-0.0081,0.4204,"(0.0, 0.0, 0.0, 0.0, 0.0, 0.0, 0.0, 0.0, 0.0)","b'$VNYMR,+133.455,+005.729,+004.922,-00.3473,-00.0081,+00.4204,+00.951,-00.819,-09.381,-00.000396,-00.000624,-00.001909*62\r\n'"
1666453759.9204457,5471,1666453759,914463758,IMU1_Frame,0,1666453759,914482831,IMU1_Frame,0.02892379025990762,0.05911566119547,0.9157878449773654,0.3962339914118125,"(0.0, 0.0, 0.0, 0.0, 0.0, 0.0, 0.0, 0.0, 0.0)",-0.000108,0.0,0.0,"(0.0, 0.0, 0.0, 0.0, 0.0, 0.0, 0.0, 0.0, 0.0)",0.945,-0.81,-9.405,"(0.0, 0.0, 0.0, 0.0, 0.0, 0.0, 0.0, 0.0, 0.0)",0,1666453759,914498567,IMU1_Frame,-0.3462,-0.0046,0.4216,"(0.0, 0.0, 0.0, 0.0, 0.0, 0.0, 0.0, 0.0, 0.0)","b'$VNYMR,+133.453,+005.729,+004.921,-00.3462,-00.0046,+00.4216,+00.945,-00.810,-09.405,-00.000865,-00.000259,-00.000108*69\r\n'"
1666453759.9643028,5472,1666453759,939441919,IMU1_Frame,0,1666453759,939461231,IMU1_Frame,0.028914751999493962,0.05911274246372498,0.9157814773123506,0.39624980328933124,"(0.0, 0.0, 0.0, 0.0, 0.0, 0.0, 0.0, 0.0, 0.0)",-2e-05,0.0,0.0,"(0.0, 0.0, 0.0, 0.0, 0.0, 0.0, 0.0, 0.0, 0.0)",0.95,-0.828,-9.415,"(0.0, 0.0, 0.0, 0.0, 0.0, 0.0, 0.0, 0.0, 0.0)",0,1666453759,939476490,IMU1_Frame,-0.3461,0.0001,0.4191,"(0.0, 0.0, 0.0, 0.0, 0.0, 0.0, 0.0, 0.0, 0.0)","b'$VNYMR,+133.451,+005.728,+004.921,-00.3461,+00.0001,+00.4191,+00.950,-00.828,-09.415,-00.002531,-00.000700,-00.000020*62\r\n'"
1666453759.9653916,5473,1666453759,964575290,IMU1_Frame,0,1666453759,964594841,IMU1_Frame,0.028902255776626407,0.059117815073174186,0.9157745934392321,0.39626586726995,"(0.0, 0.0, 0.0, 0.0, 0.0, 0.0, 0.0, 0.0, 0.0)",0.000128,0.0,0.0,"(0.0, 0.0, 0.0, 0.0, 0.0, 0.0, 0.0, 0.0, 0.0)",0.948,-0.834,-9.414,"(0.0, 0.0, 0.0, 0.0, 0.0, 0.0, 0.0, 0.0, 0.0)",0,1666453759,964610576,IMU1_Frame,-0.3484,-0.0046,0.4141,"(0.0, 0.0, 0.0, 0.0, 0.0, 0.0, 0.0, 0.0, 0.0)","b'$VNYMR,+133.449,+005.727,+004.922,-00.3484,-00.0046,+00.4141,+00.948,-00.834,-09.414,+00.000344,-00.000796,+00.000128*61\r\n'"
1666453760.008354,5474,1666453759,989474058,IMU1_Frame,0,1666453759,989494085,IMU1_Frame,0.028910262210658132,0.05912123875074574,0.9157740454138749,0.3962660389357062,"(0.0, 0.0, 0.0, 0.0, 0.0, 0.0, 0.0, 0.0, 0.0)",0.000167,0.0,0.0,"(0.0, 0.0, 0.0, 0.0, 0.0, 0.0, 0.0, 0.0, 0.0)",0.959,-0.797,-9.432,"(0.0, 0.0, 0.0, 0.0, 0.0, 0.0, 0.0, 0.0, 0.0)",0,1666453759,989509582,IMU1_Frame,-0.3473,-0.0034,0.4216,"(0.0, 0.0, 0.0, 0.0, 0.0, 0.0, 0.0, 0.0, 0.0)","b'$VNYMR,+133.449,+005.728,+004.922,-00.3473,-00.0034,+00.4216,+00.959,-00.797,-09.432,+00.000540,+00.000710,+00.000167*61\r\n'"
1666453760.0523553,5475,1666453760,14394521,IMU1_Frame,0,1666453760,14413833,IMU1_Frame,0.028913720283103662,0.05911324711234684,0.9157745613091418,0.39626578663098594,"(0.0, 0.0, 0.0, 0.0, 0.0, 0.0, 0.0, 0.0, 0.0)",0.000675,0.0,0.0,"(0.0, 0.0, 0.0, 0.0, 0.0, 0.0, 0.0, 0.0, 0.0)",0.956,-0.823,-9.423,"(0.0, 0.0, 0.0, 0.0, 0.0, 0.0, 0.0, 0.0, 0.0)",0,1666453760,14428853,IMU1_Frame,-0.3495,-0.001,0.4202,"(0.0, 0.0, 0.0, 0.0, 0.0, 0.0, 0.0, 0.0, 0.0)","b'$VNYMR,+133.449,+005.728,+004.921,-00.3495,-00.0010,+00.4202,+00.956,-00.823,-09.423,+00.000133,-00.000276,+00.000675*61\r\n'"
1666453760.0524035,5476,1666453760,39430379,IMU1_Frame,0,1666453760,39450645,IMU1_Frame,0.028910262210658132,0.05912123875074574,0.9157740454138749,0.3962660389357062,"(0.0, 0.0, 0.0, 0.0, 0.0, 0.0, 0.0, 0.0, 0.0)",-0.000786,0.0,0.0,"(0.0, 0.0, 0.0, 0.0, 0.0, 0.0, 0.0, 0.0, 0.0)",0.937,-0.81,-9.416,"(0.0, 0.0, 0.0, 0.0, 0.0, 0.0, 0.0, 0.0, 0.0)",0,1666453760,39467334,IMU1_Frame,-0.3473,-0.0057,0.4216,"(0.0, 0.0, 0.0, 0.0, 0.0, 0.0, 0.0, 0.0, 0.0)","b'$VNYMR,+133.449,+005.728,+004.922,-00.3473,-00.0057,+00.4216,+00.937,-00.810,-09.416,-00.000089,-00.001461,-00.000786*61\r\n'"
1666453760.0963042,5477,1666453760,64532518,IMU1_Frame,0,1666453760,64553260,IMU1_Frame,0.02890173987526614,0.059118067290685396,0.9157711353323135,0.3962738588957921,"(0.0, 0.0, 0.0, 0.0, 0.0, 0.0, 0.0, 0.0, 0.0)",-0.001813,0.0,0.0,"(0.0, 0.0, 0.0, 0.0, 0.0, 0.0, 0.0, 0.0, 0.0)",0.95,-0.825,-9.415,"(0.0, 0.0, 0.0, 0.0, 0.0, 0.0, 0.0, 0.0, 0.0)",0,1666453760,64568519,IMU1_Frame,-0.3472,0.0013,0.4215,"(0.0, 0.0, 0.0, 0.0, 0.0, 0.0, 0.0, 0.0, 0.0)","b'$VNYMR,+133.448,+005.727,+004.922,-00.3472,+00.0013,+00.4215,+00.950,-00.825,-09.415,-00.000184,-00.000233,-00.001813*61\r\n'"
1666453760.0963564,5478,1666453760,89493036,IMU1_Frame,0,1666453760,89513063,IMU1_Frame,0.028894249340394,0.05911439139110084,0.9157751413948492,0.39626569557401636,"(0.0, 0.0, 0.0, 0.0, 0.0, 0.0, 0.0, 0.0, 0.0)",-0.00013,0.0,0.0,"(0.0, 0.0, 0.0, 0.0, 0.0, 0.0, 0.0, 0.0, 0.0)",0.923,-0.81,-9.415,"(0.0, 0.0, 0.0, 0.0, 0.0, 0.0, 0.0, 0.0, 0.0)",0,1666453760,89529514,IMU1_Frame,-0.3473,-0.0057,0.4228,"(0.0, 0.0, 0.0, 0.0, 0.0, 0.0, 0.0, 0.0, 0.0)","b'$VNYMR,+133.449,+005.726,+004.922,-00.3473,-00.0057,+00.4228,+00.923,-00.810,-09.415,+00.000516,+00.000241,-00.000130*69\r\n'"
1666453760.1403427,5479,1666453760,114490985,IMU1_Frame,0,1666453760,114510774,IMU1_Frame,0.02888624290195956,0.059110967704525626,0.915775689280726,0.39626552384790537,"(0.0, 0.0, 0.0, 0.0, 0.0, 0.0, 0.0, 0.0, 0.0)",-0.000755,0.0,0.0,"(0.0, 0.0, 0.0, 0.0, 0.0, 0.0, 0.0, 0.0, 0.0)",0.948,-0.804,-9.41,"(0.0, 0.0, 0.0, 0.0, 0.0, 0.0, 0.0, 0.0, 0.0)",0,1666453760,114527225,IMU1_Frame,-0.3484,-0.0045,0.4228,"(0.0, 0.0, 0.0, 0.0, 0.0, 0.0, 0.0, 0.0, 0.0)","b'$VNYMR,+133.449,+005.725,+004.922,-00.3484,-00.0045,+00.4228,+00.948,-00.804,-09.410,-00.001056,-00.001211,-00.000755*6D\r\n'"
1666453760.140394,5480,1666453760,139456510,IMU1_Frame,0,1666453760,139475822,IMU1_Frame,0.028870230018493592,0.05910412031787023,0.9157767848432585,0.39626518030515134,"(0.0, 0.0, 0.0, 0.0, 0.0, 0.0, 0.0, 0.0, 0.0)",-0.000331,0.0,0.0,"(0.0, 0.0, 0.0, 0.0, 0.0, 0.0, 0.0, 0.0, 0.0)",0.975,-0.816,-9.409,"(0.0, 0.0, 0.0, 0.0, 0.0, 0.0, 0.0, 0.0, 0.0)",0,1666453760,139492273,IMU1_Frame,-0.3473,-0.0034,0.4216,"(0.0, 0.0, 0.0, 0.0, 0.0, 0.0, 0.0, 0.0, 0.0)","b'$VNYMR,+133.449,+005.723,+004.922,-00.3473,-00.0034,+00.4216,+00.975,-00.816,-09.409,-00.000147,-00.001066,-00.000331*69\r\n'"
1666453760.1843777,5481,1666453760,164450645,IMU1_Frame,0,1666453760,164470195,IMU1_Frame,0.028877204835671695,0.059108048024754375,0.9157693208222765,0.39628133534181037,"(0.0, 0.0, 0.0, 0.0, 0.0, 0.0, 0.0, 0.0, 0.0)",0.001477,0.0,0.0,"(0.0, 0.0, 0.0, 0.0, 0.0, 0.0, 0.0, 0.0, 0.0)",0.968,-0.818,-9.426,"(0.0, 0.0, 0.0, 0.0, 0.0, 0.0, 0.0, 0.0, 0.0)",0,1666453760,164486408,IMU1_Frame,-0.3495,-0.0033,0.4215,"(0.0, 0.0, 0.0, 0.0, 0.0, 0.0, 0.0, 0.0, 0.0)","b'$VNYMR,+133.447,+005.724,+004.922,-00.3495,-00.0033,+00.4215,+00.968,-00.818,-09.426,-00.001420,+00.000330,+00.001477*63\r\n'"
1666453760.1902819,5482,1666453760,189481973,IMU1_Frame,0,1666453760,189501762,IMU1_Frame,0.028868166877903337,0.05910512804300093,0.9157629520211236,0.39629714670394417,"(0.0, 0.0, 0.0, 0.0, 0.0, 0.0, 0.0, 0.0, 0.0)",-5.6e-05,0.0,0.0,"(0.0, 0.0, 0.0, 0.0, 0.0, 0.0, 0.0, 0.0, 0.0)",0.947,-0.814,-9.435,"(0.0, 0.0, 0.0, 0.0, 0.0, 0.0, 0.0, 0.0, 0.0)",0,1666453760,189517498,IMU1_Frame,-0.3495,-0.0056,0.4252,"(0.0, 0.0, 0.0, 0.0, 0.0, 0.0, 0.0, 0.0, 0.0)","b'$VNYMR,+133.445,+005.723,+004.922,-00.3495,-00.0056,+00.4252,+00.947,-00.814,-09.435,+00.000746,+00.000145,-00.000056*61\r\n'"
1666453760.2322795,5483,1666453760,214614629,IMU1_Frame,0,1666453760,214635372,IMU1_Frame,0.028867135294417107,0.05910563187855983,0.9157560351916191,0.3963131297222642,"(0.0, 0.0, 0.0, 0.0, 0.0, 0.0, 0.0, 0.0, 0.0)",-0.000162,0.0,0.0,"(0.0, 0.0, 0.0, 0.0, 0.0, 0.0, 0.0, 0.0, 0.0)",0.956,-0.802,-9.429,"(0.0, 0.0, 0.0, 0.0, 0.0, 0.0, 0.0, 0.0, 0.0)",0,1666453760,214652776,IMU1_Frame,-0.3496,-0.0116,0.4166,"(0.0, 0.0, 0.0, 0.0, 0.0, 0.0, 0.0, 0.0, 0.0)","b'$VNYMR,+133.443,+005.723,+004.922,-00.3496,-00.0116,+00.4166,+00.956,-00.802,-09.429,-00.000055,-00.000881,-00.000162*6D\r\n'"
1666453760.276355,5484,1666453760,239456415,IMU1_Frame,0,1666453760,239475965,IMU1_Frame,0.028858097496145676,0.05910271143708765,0.9157496657718086,0.39632894084145315,"(0.0, 0.0, 0.0, 0.0, 0.0, 0.0, 0.0, 0.0, 0.0)",0.000382,0.0,0.0,"(0.0, 0.0, 0.0, 0.0, 0.0, 0.0, 0.0, 0.0, 0.0)",0.959,-0.823,-9.415,"(0.0, 0.0, 0.0, 0.0, 0.0, 0.0, 0.0, 0.0, 0.0)",0,1666453760,239492416,IMU1_Frame,-0.3472,0.006,0.4202,"(0.0, 0.0, 0.0, 0.0, 0.0, 0.0, 0.0, 0.0, 0.0)","b'$VNYMR,+133.441,+005.722,+004.922,-00.3472,+00.0060,+00.4202,+00.959,-00.823,-09.415,+00.000010,-00.001909,+00.000382*6D\r\n'"
1666453760.276401,5485,1666453760,264516830,IMU1_Frame,0,1666453760,264535903,IMU1_Frame,0.02886558790270057,0.059106387598139076,0.9157456594243216,0.3963371040233859,"(0.0, 0.0, 0.0, 0.0, 0.0, 0.0, 0.0, 0.0, 0.0)",-0.001299,0.0,0.0,"(0.0, 0.0, 0.0, 0.0, 0.0, 0.0, 0.0, 0.0, 0.0)",0.955,-0.844,-9.401,"(0.0, 0.0, 0.0, 0.0, 0.0, 0.0, 0.0, 0.0, 0.0)",0,1666453760,264551639,IMU1_Frame,-0.3495,-0.0045,0.4178,"(0.0, 0.0, 0.0, 0.0, 0.0, 0.0, 0.0, 0.0, 0.0)","b'$VNYMR,+133.440,+005.723,+004.922,-00.3495,-00.0045,+00.4178,+00.955,-00.844,-09.401,-00.000438,-00.001039,-00.001299*6D\r\n'"
1666453760.3203719,5486,1666453760,289448499,IMU1_Frame,0,1666453760,289468050,IMU1_Frame,0.028858154569780428,0.05912262220316142,0.9157411689508017,0.39634559912690853,"(0.0, 0.0, 0.0, 0.0, 0.0, 0.0, 0.0, 0.0, 0.0)",0.000135,0.0,0.0,"(0.0, 0.0, 0.0, 0.0, 0.0, 0.0, 0.0, 0.0, 0.0)",0.937,-0.801,-9.384,"(0.0, 0.0, 0.0, 0.0, 0.0, 0.0, 0.0, 0.0, 0.0)",0,1666453760,289484500,IMU1_Frame,-0.3496,-0.0069,0.4153,"(0.0, 0.0, 0.0, 0.0, 0.0, 0.0, 0.0, 0.0, 0.0)","b'$VNYMR,+133.439,+005.723,+004.924,-00.3496,-00.0069,+00.4153,+00.937,-00.801,-09.384,+00.000982,-00.000136,+00.000135*69\r\n'"
1666453760.3204188,5487,1666453760,314513444,IMU1_Frame,0,1666453760,314532756,IMU1_Frame,0.028860065709214344,0.059115386426675305,0.9157313082473969,0.3963693212023297,"(0.0, 0.0, 0.0, 0.0, 0.0, 0.0, 0.0, 0.0, 0.0)",-0.000727,0.0,0.0,"(0.0, 0.0, 0.0, 0.0, 0.0, 0.0, 0.0, 0.0, 0.0)",0.968,-0.811,-9.397,"(0.0, 0.0, 0.0, 0.0, 0.0, 0.0, 0.0, 0.0, 0.0)",0,1666453760,314548254,IMU1_Frame,-0.3496,-0.0092,0.4216,"(0.0, 0.0, 0.0, 0.0, 0.0, 0.0, 0.0, 0.0, 0.0)","b'$VNYMR,+133.436,+005.723,+004.923,-00.3496,-00.0092,+00.4216,+00.968,-00.811,-09.397,-00.000430,-00.000311,-00.000727*68\r\n'"
1666453760.3682768,5488,1666453760,339529514,IMU1_Frame,0,1666453760,339550018,IMU1_Frame,0.02886358082286581,0.059127306055442926,0.9157233264112338,0.39638572735033356,"(0.0, 0.0, 0.0, 0.0, 0.0, 0.0, 0.0, 0.0, 0.0)",-0.001562,0.0,0.0,"(0.0, 0.0, 0.0, 0.0, 0.0, 0.0, 0.0, 0.0, 0.0)",0.967,-0.807,-9.39,"(0.0, 0.0, 0.0, 0.0, 0.0, 0.0, 0.0, 0.0, 0.0)",0,1666453760,339568614,IMU1_Frame,-0.3473,-0.0046,0.4141,"(0.0, 0.0, 0.0, 0.0, 0.0, 0.0, 0.0, 0.0, 0.0)","b'$VNYMR,+133.434,+005.724,+004.924,-00.3473,-00.0046,+00.4141,+00.967,-00.807,-09.390,-00.000499,-00.000710,-00.001562*62\r\n'"
1666453760.368331,5489,1666453760,364528179,IMU1_Frame,0,1666453760,364547252,IMU1_Frame,0.028851083663374133,0.05913237607289372,0.9157164398749011,0.39640178962040445,"(0.0, 0.0, 0.0, 0.0, 0.0, 0.0, 0.0, 0.0, 0.0)",-0.00045,0.0,0.0,"(0.0, 0.0, 0.0, 0.0, 0.0, 0.0, 0.0, 0.0, 0.0)",0.934,-0.826,-9.409,"(0.0, 0.0, 0.0, 0.0, 0.0, 0.0, 0.0, 0.0, 0.0)",0,1666453760,364563226,IMU1_Frame,-0.3484,-0.0033,0.4228,"(0.0, 0.0, 0.0, 0.0, 0.0, 0.0, 0.0, 0.0, 0.0)","b'$VNYMR,+133.432,+005.723,+004.925,-00.3484,-00.0033,+00.4228,+00.934,-00.826,-09.409,-00.000378,-00.000642,-00.000450*69\r\n'"
1666453760.4122946,5490,1666453760,389547109,IMU1_Frame,0,1666453760,389566898,IMU1_Frame,0.028850051604322788,0.059132879610290075,0.9157095212190404,0.3964177718269184,"(0.0, 0.0, 0.0, 0.0, 0.0, 0.0, 0.0, 0.0, 0.0)",-0.000214,0.0,0.0,"(0.0, 0.0, 0.0, 0.0, 0.0, 0.0, 0.0, 0.0, 0.0)",0.931,-0.8,-9.403,"(0.0, 0.0, 0.0, 0.0, 0.0, 0.0, 0.0, 0.0, 0.0)",0,1666453760,389582872,IMU1_Frame,-0.3484,-0.0069,0.4216,"(0.0, 0.0, 0.0, 0.0, 0.0, 0.0, 0.0, 0.0, 0.0)","b'$VNYMR,+133.430,+005.723,+004.925,-00.3484,-00.0069,+00.4216,+00.931,-00.800,-09.403,-00.001227,+00.000304,-00.000214*6F\r\n'"
1666453760.415189,5491,1666453760,414516687,IMU1_Frame,0,1666453760,414535760,IMU1_Frame,0.02884602105763862,0.05912121179020853,0.9157140443399109,0.3964093570846218,"(0.0, 0.0, 0.0, 0.0, 0.0, 0.0, 0.0, 0.0, 0.0)",0.00014,0.0,0.0,"(0.0, 0.0, 0.0, 0.0, 0.0, 0.0, 0.0, 0.0, 0.0)",0.945,-0.828,-9.427,"(0.0, 0.0, 0.0, 0.0, 0.0, 0.0, 0.0, 0.0, 0.0)",0,1666453760,414551496,IMU1_Frame,-0.3473,-0.0081,0.4204,"(0.0, 0.0, 0.0, 0.0, 0.0, 0.0, 0.0, 0.0, 0.0)","b'$VNYMR,+133.431,+005.722,+004.924,-00.3473,-00.0081,+00.4204,+00.945,-00.828,-09.427,+00.000053,-00.000859,+00.000140*6B\r\n'"
1666453760.45627,5492,1666453760,439376831,IMU1_Frame,0,1666453760,439396142,IMU1_Frame,0.028842561732306777,0.059129202900497724,0.9157135283751413,0.3964096087985495,"(0.0, 0.0, 0.0, 0.0, 0.0, 0.0, 0.0, 0.0, 0.0)",-0.001266,0.0,0.0,"(0.0, 0.0, 0.0, 0.0, 0.0, 0.0, 0.0, 0.0, 0.0)",0.936,-0.793,-9.376,"(0.0, 0.0, 0.0, 0.0, 0.0, 0.0, 0.0, 0.0, 0.0)",0,1666453760,439411878,IMU1_Frame,-0.3507,-0.0115,0.4178,"(0.0, 0.0, 0.0, 0.0, 0.0, 0.0, 0.0, 0.0, 0.0)","b'$VNYMR,+133.431,+005.722,+004.925,-00.3507,-00.0115,+00.4178,+00.936,-00.793,-09.376,-00.000427,+00.000328,-00.001266*6E\r\n'"
1666453760.5043204,5493,1666453760,464504241,IMU1_Frame,0,1666453760,464523553,IMU1_Frame,0.02884152972863885,0.05912970628915866,0.9157066095828105,0.3964255909542472,"(0.0, 0.0, 0.0, 0.0, 0.0, 0.0, 0.0, 0.0, 0.0)",-0.000254,0.0,0.0,"(0.0, 0.0, 0.0, 0.0, 0.0, 0.0, 0.0, 0.0, 0.0)",0.949,-0.829,-9.414,"(0.0, 0.0, 0.0, 0.0, 0.0, 0.0, 0.0, 0.0, 0.0)",0,1666453760,464538812,IMU1_Frame,-0.3485,-0.0092,0.4216,"(0.0, 0.0, 0.0, 0.0, 0.0, 0.0, 0.0, 0.0, 0.0)","b'$VNYMR,+133.429,+005.722,+004.925,-00.3485,-00.0092,+00.4216,+00.949,-00.829,-09.414,-00.000893,-00.000932,-00.000254*68\r\n'"
1666453760.5043654,5494,1666453760,489515542,IMU1_Frame,0,1666453760,489535093,IMU1_Frame,0.02882903232594003,0.05913477542230948,0.9156997222277098,0.3964416526337743,"(0.0, 0.0, 0.0, 0.0, 0.0, 0.0, 0.0, 0.0, 0.0)",-0.000692,0.0,0.0,"(0.0, 0.0, 0.0, 0.0, 0.0, 0.0, 0.0, 0.0, 0.0)",0.962,-0.816,-9.395,"(0.0, 0.0, 0.0, 0.0, 0.0, 0.0, 0.0, 0.0, 0.0)",0,1666453760,489550590,IMU1_Frame,-0.3484,-0.0057,0.4166,"(0.0, 0.0, 0.0, 0.0, 0.0, 0.0, 0.0, 0.0, 0.0)","b'$VNYMR,+133.427,+005.721,+004.926,-00.3484,-00.0057,+00.4166,+00.962,-00.816,-09.395,-00.000339,-00.000710,-00.000692*6A\r\n'"
1666453760.5483384,5495,1666453760,514474153,IMU1_Frame,0,1666453760,514494657,IMU1_Frame,0.028828516276575487,0.059135027000824465,0.9156962625867773,0.39644964360623514,"(0.0, 0.0, 0.0, 0.0, 0.0, 0.0, 0.0, 0.0, 0.0)",-0.000324,0.0,0.0,"(0.0, 0.0, 0.0, 0.0, 0.0, 0.0, 0.0, 0.0, 0.0)",0.962,-0.824,-9.414,"(0.0, 0.0, 0.0, 0.0, 0.0, 0.0, 0.0, 0.0, 0.0)",0,1666453760,514510869,IMU1_Frame,-0.3462,-0.0069,0.4229,"(0.0, 0.0, 0.0, 0.0, 0.0, 0.0, 0.0, 0.0, 0.0)","b'$VNYMR,+133.426,+005.721,+004.926,-00.3462,-00.0069,+00.4229,+00.962,-00.824,-09.414,-00.001277,-00.001263,-00.000324*6B\r\n'"
1666453760.5483847,5496,1666453760,539474248,IMU1_Frame,0,1666453760,539493322,IMU1_Frame,0.028828000225016033,0.05913527857483629,0.9156928028761107,0.3964576345485042,"(0.0, 0.0, 0.0, 0.0, 0.0, 0.0, 0.0, 0.0, 0.0)",-0.001639,0.0,0.0,"(0.0, 0.0, 0.0, 0.0, 0.0, 0.0, 0.0, 0.0, 0.0)",0.963,-0.809,-9.379,"(0.0, 0.0, 0.0, 0.0, 0.0, 0.0, 0.0, 0.0, 0.0)",0,1666453760,539508581,IMU1_Frame,-0.3473,-0.0081,0.4192,"(0.0, 0.0, 0.0, 0.0, 0.0, 0.0, 0.0, 0.0, 0.0)","b'$VNYMR,+133.425,+005.721,+004.926,-00.3473,-00.0081,+00.4192,+00.963,-00.809,-09.379,-00.000124,+00.000181,-00.001639*6B\r\n'"
1666453760.592454,5497,1666453760,564527511,IMU1_Frame,0,1666453760,564548015,IMU1_Frame,0.028828000225016033,0.05913527857483629,0.9156928028761107,0.3964576345485042,"(0.0, 0.0, 0.0, 0.0, 0.0, 0.0, 0.0, 0.0, 0.0)",0.000629,0.0,0.0,"(0.0, 0.0, 0.0, 0.0, 0.0, 0.0, 0.0, 0.0, 0.0)",0.957,-0.784,-9.429,"(0.0, 0.0, 0.0, 0.0, 0.0, 0.0, 0.0, 0.0, 0.0)",0,1666453760,564564704,IMU1_Frame,-0.3473,-0.0069,0.4229,"(0.0, 0.0, 0.0, 0.0, 0.0, 0.0, 0.0, 0.0, 0.0)","b'$VNYMR,+133.425,+005.721,+004.926,-00.3473,-00.0069,+00.4229,+00.957,-00.784,-09.429,-00.000379,-00.001456,+00.000629*65\r\n'"
1666453760.5925083,5498,1666453760,589517593,IMU1_Frame,0,1666453760,589535951,IMU1_Frame,0.028833887880921213,0.05911979996676751,0.9156869152202051,0.39647311315657324,"(0.0, 0.0, 0.0, 0.0, 0.0, 0.0, 0.0, 0.0, 0.0)",-0.000738,0.0,0.0,"(0.0, 0.0, 0.0, 0.0, 0.0, 0.0, 0.0, 0.0, 0.0)",0.951,-0.805,-9.413,"(0.0, 0.0, 0.0, 0.0, 0.0, 0.0, 0.0, 0.0, 0.0)",0,1666453760,589551687,IMU1_Frame,-0.3473,-0.0057,0.4179,"(0.0, 0.0, 0.0, 0.0, 0.0, 0.0, 0.0, 0.0, 0.0)","b'$VNYMR,+133.423,+005.721,+004.924,-00.3473,-00.0057,+00.4179,+00.951,-00.805,-09.413,+00.000284,-00.000482,-00.000738*69\r\n'"
1666453760.6362858,5499,1666453760,614459276,IMU1_Frame,0,1666453760,614478826,IMU1_Frame,0.02884189354813203,0.0591232254783058,0.9156863675145265,0.3964732850188663,"(0.0, 0.0, 0.0, 0.0, 0.0, 0.0, 0.0, 0.0, 0.0)",0.00023,0.0,0.0,"(0.0, 0.0, 0.0, 0.0, 0.0, 0.0, 0.0, 0.0, 0.0)",0.941,-0.824,-9.401,"(0.0, 0.0, 0.0, 0.0, 0.0, 0.0, 0.0, 0.0, 0.0)",0,1666453760,614494800,IMU1_Frame,-0.3484,-0.0057,0.4203,"(0.0, 0.0, 0.0, 0.0, 0.0, 0.0, 0.0, 0.0, 0.0)","b'$VNYMR,+133.423,+005.722,+004.924,-00.3484,-00.0057,+00.4203,+00.941,-00.824,-09.401,+00.000470,-00.000391,+00.000230*6E\r\n'"
1666453760.6404436,5500,1666453760,639485836,IMU1_Frame,0,1666453760,639506340,IMU1_Frame,0.028832340118297047,0.05912055481592703,0.9156765352645749,0.3964970856480834,"(0.0, 0.0, 0.0, 0.0, 0.0, 0.0, 0.0, 0.0, 0.0)",-7.4e-05,0.0,0.0,"(0.0, 0.0, 0.0, 0.0, 0.0, 0.0, 0.0, 0.0, 0.0)",0.941,-0.805,-9.402,"(0.0, 0.0, 0.0, 0.0, 0.0, 0.0, 0.0, 0.0, 0.0)",0,1666453760,639522314,IMU1_Frame,-0.3473,-0.0093,0.4167,"(0.0, 0.0, 0.0, 0.0, 0.0, 0.0, 0.0, 0.0, 0.0)","b'$VNYMR,+133.420,+005.721,+004.924,-00.3473,-00.0093,+00.4167,+00.941,-00.805,-09.402,-00.000561,-00.000696,-00.000074*6E\r\n'"
1666453760.6842558,5501,1666453760,664537191,IMU1_Frame,0,1666453760,664556741,IMU1_Frame,0.028823818643201046,0.05911738062781995,0.9156736227818439,0.3965049045448275,"(0.0, 0.0, 0.0, 0.0, 0.0, 0.0, 0.0, 0.0, 0.0)",-0.000175,0.0,0.0,"(0.0, 0.0, 0.0, 0.0, 0.0, 0.0, 0.0, 0.0, 0.0)",0.956,-0.799,-9.394,"(0.0, 0.0, 0.0, 0.0, 0.0, 0.0, 0.0, 0.0, 0.0)",0,1666453760,664572477,IMU1_Frame,-0.3473,-0.0045,0.4216,"(0.0, 0.0, 0.0, 0.0, 0.0, 0.0, 0.0, 0.0, 0.0)","b'$VNYMR,+133.419,+005.720,+004.924,-00.3473,-00.0045,+00.4216,+00.956,-00.799,-09.394,+00.000651,-00.000637,-00.000175*62\r\n'"
1666453760.728297,5502,1666453760,689533233,IMU1_Frame,0,1666453760,689552307,IMU1_Frame,0.02883079233591048,0.05912130962456529,0.91566615468135,0.39652105786783853,"(0.0, 0.0, 0.0, 0.0, 0.0, 0.0, 0.0, 0.0, 0.0)",-0.000257,0.0,0.0,"(0.0, 0.0, 0.0, 0.0, 0.0, 0.0, 0.0, 0.0, 0.0)",0.983,-0.812,-9.386,"(0.0, 0.0, 0.0, 0.0, 0.0, 0.0, 0.0, 0.0, 0.0)",0,1666453760,689568281,IMU1_Frame,-0.3473,-0.0057,0.4216,"(0.0, 0.0, 0.0, 0.0, 0.0, 0.0, 0.0, 0.0, 0.0)","b'$VNYMR,+133.417,+005.721,+004.924,-00.3473,-00.0057,+00.4216,+00.983,-00.812,-09.386,-00.000808,-00.000294,-00.000257*63\r\n'"
1666453760.7283404,5503,1666453760,714558362,IMU1_Frame,0,1666453760,714580059,IMU1_Frame,0.028833736771698076,0.059113570551763,0.9156632102455627,0.39652879694064175,"(0.0, 0.0, 0.0, 0.0, 0.0, 0.0, 0.0, 0.0, 0.0)",-0.001307,0.0,0.0,"(0.0, 0.0, 0.0, 0.0, 0.0, 0.0, 0.0, 0.0, 0.0)",0.958,-0.801,-9.393,"(0.0, 0.0, 0.0, 0.0, 0.0, 0.0, 0.0, 0.0, 0.0)",0,1666453760,714596509,IMU1_Frame,-0.3462,-0.0034,0.4204,"(0.0, 0.0, 0.0, 0.0, 0.0, 0.0, 0.0, 0.0, 0.0)","b'$VNYMR,+133.416,+005.721,+004.923,-00.3462,-00.0034,+00.4204,+00.958,-00.801,-09.393,-00.000407,-00.000787,-00.001307*62\r\n'"
1666453760.772208,5504,1666453760,739428281,IMU1_Frame,0,1666453760,739447355,IMU1_Frame,0.028838281861999916,0.05912498721901124,0.9156621466313015,0.3965292203761995,"(0.0, 0.0, 0.0, 0.0, 0.0, 0.0, 0.0, 0.0, 0.0)",-0.000176,0.0,0.0,"(0.0, 0.0, 0.0, 0.0, 0.0, 0.0, 0.0, 0.0, 0.0)",0.952,-0.813,-9.448,"(0.0, 0.0, 0.0, 0.0, 0.0, 0.0, 0.0, 0.0, 0.0)",0,1666453760,739464044,IMU1_Frame,-0.3461,-0.001,0.4228,"(0.0, 0.0, 0.0, 0.0, 0.0, 0.0, 0.0, 0.0, 0.0)","b'$VNYMR,+133.416,+005.722,+004.924,-00.3461,-00.0010,+00.4228,+00.952,-00.813,-09.448,+00.000972,+00.000040,-00.000176*63\r\n'"
1666453760.7722535,5505,1666453760,764420747,IMU1_Frame,0,1666453760,764440774,IMU1_Frame,0.02883724993191053,0.05912549053297504,0.9156552257513625,0.39654520163509865,"(0.0, 0.0, 0.0, 0.0, 0.0, 0.0, 0.0, 0.0, 0.0)",-0.001041,0.0,0.0,"(0.0, 0.0, 0.0, 0.0, 0.0, 0.0, 0.0, 0.0, 0.0)",0.939,-0.836,-9.411,"(0.0, 0.0, 0.0, 0.0, 0.0, 0.0, 0.0, 0.0, 0.0)",0,1666453760,764456987,IMU1_Frame,-0.3474,-0.0105,0.413,"(0.0, 0.0, 0.0, 0.0, 0.0, 0.0, 0.0, 0.0, 0.0)","b'$VNYMR,+133.414,+005.722,+004.924,-00.3474,-00.0105,+00.4130,+00.939,-00.836,-09.411,-00.000251,-00.001252,-00.001041*62\r\n'"
1666453760.8162773,5506,1666453760,789509534,IMU1_Frame,0,1666453760,789529323,IMU1_Frame,0.028836733963571774,0.05912574218320292,0.9156517652067963,0.3965531922192503,"(0.0, 0.0, 0.0, 0.0, 0.0, 0.0, 0.0, 0.0, 0.0)",-0.001237,0.0,0.0,"(0.0, 0.0, 0.0, 0.0, 0.0, 0.0, 0.0, 0.0, 0.0)",0.943,-0.823,-9.392,"(0.0, 0.0, 0.0, 0.0, 0.0, 0.0, 0.0, 0.0, 0.0)",0,1666453760,789545059,IMU1_Frame,-0.3462,-0.0081,0.4142,"(0.0, 0.0, 0.0, 0.0, 0.0, 0.0, 0.0, 0.0, 0.0)","b'$VNYMR,+133.413,+005.722,+004.924,-00.3462,-00.0081,+00.4142,+00.943,-00.823,-09.392,-00.000584,-00.000018,-00.001237*6E\r\n'"
1666453760.8163228,5507,1666453760,814452648,IMU1_Frame,0,1666453760,814471721,IMU1_Frame,0.02882821265468909,0.05912256754891623,0.9156488523146727,0.3965610109634864,"(0.0, 0.0, 0.0, 0.0, 0.0, 0.0, 0.0, 0.0, 0.0)",0.000871,0.0,0.0,"(0.0, 0.0, 0.0, 0.0, 0.0, 0.0, 0.0, 0.0, 0.0)",0.952,-0.821,-9.414,"(0.0, 0.0, 0.0, 0.0, 0.0, 0.0, 0.0, 0.0, 0.0)",0,1666453760,814487457,IMU1_Frame,-0.3462,-0.008,0.4242,"(0.0, 0.0, 0.0, 0.0, 0.0, 0.0, 0.0, 0.0, 0.0)","b'$VNYMR,+133.412,+005.721,+004.924,-00.3462,-00.0080,+00.4242,+00.952,-00.821,-09.414,-00.000081,-00.001024,+00.000871*64\r\n'"
1666453760.8602717,5508,1666453760,839446067,IMU1_Frame,0,1666453760,839465379,IMU1_Frame,0.02882718076683162,0.059123070687140226,0.9156419308798854,0.3965769919903511,"(0.0, 0.0, 0.0, 0.0, 0.0, 0.0, 0.0, 0.0, 0.0)",-0.000418,0.0,0.0,"(0.0, 0.0, 0.0, 0.0, 0.0, 0.0, 0.0, 0.0, 0.0)",0.948,-0.83,-9.435,"(0.0, 0.0, 0.0, 0.0, 0.0, 0.0, 0.0, 0.0, 0.0)",0,1666453760,839480638,IMU1_Frame,-0.3462,-0.0093,0.4155,"(0.0, 0.0, 0.0, 0.0, 0.0, 0.0, 0.0, 0.0, 0.0)","b'$VNYMR,+133.410,+005.721,+004.924,-00.3462,-00.0093,+00.4155,+00.948,-00.830,-09.435,-00.001141,+00.000400,-00.000418*65\r\n'"
1666453760.8652658,5509,1666453760,864519834,IMU1_Frame,0,1666453760,864540100,IMU1_Frame,0.028838130925511653,0.05911875828858607,0.9156384382745808,0.39658490260879253,"(0.0, 0.0, 0.0, 0.0, 0.0, 0.0, 0.0, 0.0, 0.0)",-0.000504,0.0,0.0,"(0.0, 0.0, 0.0, 0.0, 0.0, 0.0, 0.0, 0.0, 0.0)",0.95,-0.8,-9.422,"(0.0, 0.0, 0.0, 0.0, 0.0, 0.0, 0.0, 0.0, 0.0)",0,1666453760,864556312,IMU1_Frame,-0.3484,-0.008,0.4203,"(0.0, 0.0, 0.0, 0.0, 0.0, 0.0, 0.0, 0.0, 0.0)","b'$VNYMR,+133.409,+005.722,+004.923,-00.3484,-00.0080,+00.4203,+00.950,-00.800,-09.422,-00.000222,-00.001253,-00.000504*63\r\n'"
1666453760.9082336,5510,1666453760,889466047,IMU1_Frame,0,1666453760,889486312,IMU1_Frame,0.028834154088937948,0.059127000366801546,0.9156344614380071,0.3965931446870084,"(0.0, 0.0, 0.0, 0.0, 0.0, 0.0, 0.0, 0.0, 0.0)",0.001274,0.0,0.0,"(0.0, 0.0, 0.0, 0.0, 0.0, 0.0, 0.0, 0.0, 0.0)",0.973,-0.812,-9.402,"(0.0, 0.0, 0.0, 0.0, 0.0, 0.0, 0.0, 0.0, 0.0)",0,1666453760,889502763,IMU1_Frame,-0.3473,-0.0093,0.4155,"(0.0, 0.0, 0.0, 0.0, 0.0, 0.0, 0.0, 0.0, 0.0)","b'$VNYMR,+133.408,+005.722,+004.924,-00.3473,-00.0093,+00.4155,+00.973,-00.812,-09.402,+00.000507,-00.000851,+00.001274*67\r\n'"
1666453760.9522521,5511,1666453760,914527416,IMU1_Frame,0,1666453760,914546966,IMU1_Frame,0.02883709910413786,0.05911926159991615,0.9156315164228074,0.39660088345389377,"(0.0, 0.0, 0.0, 0.0, 0.0, 0.0, 0.0, 0.0, 0.0)",-0.001003,0.0,0.0,"(0.0, 0.0, 0.0, 0.0, 0.0, 0.0, 0.0, 0.0, 0.0)",0.938,-0.84,-9.444,"(0.0, 0.0, 0.0, 0.0, 0.0, 0.0, 0.0, 0.0, 0.0)",0,1666453760,914562463,IMU1_Frame,-0.3461,0.0071,0.4153,"(0.0, 0.0, 0.0, 0.0, 0.0, 0.0, 0.0, 0.0, 0.0)","b'$VNYMR,+133.407,+005.722,+004.923,-00.3461,+00.0071,+00.4153,+00.938,-00.840,-09.444,-00.000959,-00.000935,-00.001003*6C\r\n'"
1666453760.9522977,5512,1666453760,939401149,IMU1_Frame,0,1666453760,939420700,IMU1_Frame,0.028829093913798478,0.05911583496582978,0.915632064122574,0.396600711737935,"(0.0, 0.0, 0.0, 0.0, 0.0, 0.0, 0.0, 0.0, 0.0)",-0.000358,0.0,0.0,"(0.0, 0.0, 0.0, 0.0, 0.0, 0.0, 0.0, 0.0, 0.0)",0.97,-0.831,-9.402,"(0.0, 0.0, 0.0, 0.0, 0.0, 0.0, 0.0, 0.0, 0.0)",0,1666453760,939437150,IMU1_Frame,-0.3484,-0.0057,0.4215,"(0.0, 0.0, 0.0, 0.0, 0.0, 0.0, 0.0, 0.0, 0.0)","b'$VNYMR,+133.407,+005.721,+004.923,-00.3484,-00.0057,+00.4215,+00.970,-00.831,-09.402,-00.000338,-00.000614,-00.000358*62\r\n'"
1666453760.9965227,5513,1666453760,964544773,IMU1_Frame,0,1666453760,964564800,IMU1_Frame,0.028836067273979294,0.059119764893238405,0.9156245942921164,0.3966168641781839,"(0.0, 0.0, 0.0, 0.0, 0.0, 0.0, 0.0, 0.0, 0.0)",-0.00047,0.0,0.0,"(0.0, 0.0, 0.0, 0.0, 0.0, 0.0, 0.0, 0.0, 0.0)",0.961,-0.819,-9.428,"(0.0, 0.0, 0.0, 0.0, 0.0, 0.0, 0.0, 0.0, 0.0)",0,1666453760,964581012,IMU1_Frame,-0.3484,-0.008,0.4216,"(0.0, 0.0, 0.0, 0.0, 0.0, 0.0, 0.0, 0.0, 0.0)","b'$VNYMR,+133.405,+005.722,+004.923,-00.3484,-00.0080,+00.4216,+00.961,-00.819,-09.428,-00.000317,+00.000130,-00.000470*6F\r\n'"
1666453760.9965715,5514,1666453760,989514827,IMU1_Frame,0,1666453760,989534139,IMU1_Frame,0.02882703036431443,0.05911684125503217,0.9156182195882707,0.3966326730848172,"(0.0, 0.0, 0.0, 0.0, 0.0, 0.0, 0.0, 0.0, 0.0)",0.000189,0.0,0.0,"(0.0, 0.0, 0.0, 0.0, 0.0, 0.0, 0.0, 0.0, 0.0)",0.971,-0.83,-9.402,"(0.0, 0.0, 0.0, 0.0, 0.0, 0.0, 0.0, 0.0, 0.0)",0,1666453760,989549875,IMU1_Frame,-0.3461,-0.0011,0.4166,"(0.0, 0.0, 0.0, 0.0, 0.0, 0.0, 0.0, 0.0, 0.0)","b'$VNYMR,+133.403,+005.721,+004.923,-00.3461,-00.0011,+00.4166,+00.971,-00.830,-09.402,-00.000109,-00.000557,+00.000189*64\r\n'"
1666453761.0403473,5515,1666453761,14479398,IMU1_Frame,0,1666453761,14499902,IMU1_Frame,0.028831058166914197,0.059128510038528606,0.9156136946143877,0.39664108665163567,"(0.0, 0.0, 0.0, 0.0, 0.0, 0.0, 0.0, 0.0, 0.0)",0.000389,0.0,0.0,"(0.0, 0.0, 0.0, 0.0, 0.0, 0.0, 0.0, 0.0, 0.0)",0.953,-0.795,-9.41,"(0.0, 0.0, 0.0, 0.0, 0.0, 0.0, 0.0, 0.0, 0.0)",0,1666453761,14515638,IMU1_Frame,-0.3461,0.0024,0.4203,"(0.0, 0.0, 0.0, 0.0, 0.0, 0.0, 0.0, 0.0, 0.0)","b'$VNYMR,+133.402,+005.722,+004.924,-00.3461,+00.0024,+00.4203,+00.953,-00.795,-09.410,-00.000789,+00.000353,+00.000389*6A\r\n'"
1666453761.0403936,5516,1666453761,39436340,IMU1_Frame,0,1666453761,39455652,IMU1_Frame,0.02882253716281323,0.05912533458627012,0.9156107809717321,0.39664890511621825,"(0.0, 0.0, 0.0, 0.0, 0.0, 0.0, 0.0, 0.0, 0.0)",-0.001171,0.0,0.0,"(0.0, 0.0, 0.0, 0.0, 0.0, 0.0, 0.0, 0.0, 0.0)",0.937,-0.79,-9.413,"(0.0, 0.0, 0.0, 0.0, 0.0, 0.0, 0.0, 0.0, 0.0)",0,1666453761,39472103,IMU1_Frame,-0.3484,-0.0056,0.4253,"(0.0, 0.0, 0.0, 0.0, 0.0, 0.0, 0.0, 0.0, 0.0)","b'$VNYMR,+133.401,+005.721,+004.924,-00.3484,-00.0056,+00.4253,+00.937,-00.790,-09.413,-00.000207,-00.001399,-00.001171*63\r\n'"
1666453761.0842483,5517,1666453761,64429998,IMU1_Frame,0,1666453761,64449548,IMU1_Frame,0.02882150522666376,0.05912583762543669,0.9156038580029082,0.396664885478599,"(0.0, 0.0, 0.0, 0.0, 0.0, 0.0, 0.0, 0.0, 0.0)",-0.001219,0.0,0.0,"(0.0, 0.0, 0.0, 0.0, 0.0, 0.0, 0.0, 0.0, 0.0)",0.924,-0.806,-9.426,"(0.0, 0.0, 0.0, 0.0, 0.0, 0.0, 0.0, 0.0, 0.0)",0,1666453761,64464330,IMU1_Frame,-0.3484,-0.0069,0.4203,"(0.0, 0.0, 0.0, 0.0, 0.0, 0.0, 0.0, 0.0, 0.0)","b'$VNYMR,+133.399,+005.721,+004.924,-00.3484,-00.0069,+00.4203,+00.924,-00.806,-09.426,-00.000399,+00.000038,-00.001219*6C\r\n'"
1666453761.0902348,5518,1666453761,89455842,IMU1_Frame,0,1666453761,89475393,IMU1_Frame,0.028836483059100596,0.0591331952978471,0.9155958391961313,0.39668120916597627,"(0.0, 0.0, 0.0, 0.0, 0.0, 0.0, 0.0, 0.0, 0.0)",4.5e-05,0.0,0.0,"(0.0, 0.0, 0.0, 0.0, 0.0, 0.0, 0.0, 0.0, 0.0)",0.966,-0.776,-9.419,"(0.0, 0.0, 0.0, 0.0, 0.0, 0.0, 0.0, 0.0, 0.0)",0,1666453761,89491128,IMU1_Frame,-0.3473,-0.0057,0.4191,"(0.0, 0.0, 0.0, 0.0, 0.0, 0.0, 0.0, 0.0, 0.0)","b'$VNYMR,+133.397,+005.723,+004.924,-00.3473,-00.0057,+00.4191,+00.966,-00.776,-09.419,+00.000481,+00.000231,+00.000045*60\r\n'"
1666453761.132334,5519,1666453761,114462614,IMU1_Frame,0,1666453761,114481925,IMU1_Frame,0.028847433645721107,0.059128884281843916,0.9155923456107875,0.3966891191784524,"(0.0, 0.0, 0.0, 0.0, 0.0, 0.0, 0.0, 0.0, 0.0)",-0.000958,0.0,0.0,"(0.0, 0.0, 0.0, 0.0, 0.0, 0.0, 0.0, 0.0, 0.0)",0.959,-0.82,-9.4,"(0.0, 0.0, 0.0, 0.0, 0.0, 0.0, 0.0, 0.0, 0.0)",0,1666453761,114496946,IMU1_Frame,-0.3473,-0.0057,0.4253,"(0.0, 0.0, 0.0, 0.0, 0.0, 0.0, 0.0, 0.0, 0.0)","b'$VNYMR,+133.396,+005.724,+004.923,-00.3473,-00.0057,+00.4253,+00.959,-00.820,-09.400,+00.000270,-00.000428,-00.000958*67\r\n'"
1666453761.1762586,5520,1666453761,139477252,IMU1_Frame,0,1666453761,139496088,IMU1_Frame,0.02885094453490783,0.059140805267317034,0.9155843579456532,0.3967055225693525,"(0.0, 0.0, 0.0, 0.0, 0.0, 0.0, 0.0, 0.0, 0.0)",-0.00066,0.0,0.0,"(0.0, 0.0, 0.0, 0.0, 0.0, 0.0, 0.0, 0.0, 0.0)",0.939,-0.828,-9.417,"(0.0, 0.0, 0.0, 0.0, 0.0, 0.0, 0.0, 0.0, 0.0)",0,1666453761,139512538,IMU1_Frame,-0.3473,-0.0093,0.4179,"(0.0, 0.0, 0.0, 0.0, 0.0, 0.0, 0.0, 0.0, 0.0)","b'$VNYMR,+133.394,+005.725,+004.924,-00.3473,-00.0093,+00.4179,+00.939,-00.828,-09.417,-00.000185,+00.000198,-00.000660*6B\r\n'"
1666453761.1763184,5521,1666453761,164548873,IMU1_Frame,0,1666453761,164568424,IMU1_Frame,0.028834983497270684,0.05915386097997604,0.9155769496598108,0.3967218341729,"(0.0, 0.0, 0.0, 0.0, 0.0, 0.0, 0.0, 0.0, 0.0)",-4.8e-05,0.0,0.0,"(0.0, 0.0, 0.0, 0.0, 0.0, 0.0, 0.0, 0.0, 0.0)",0.945,-0.805,-9.452,"(0.0, 0.0, 0.0, 0.0, 0.0, 0.0, 0.0, 0.0, 0.0)",0,1666453761,164584159,IMU1_Frame,-0.3484,-0.008,0.4241,"(0.0, 0.0, 0.0, 0.0, 0.0, 0.0, 0.0, 0.0, 0.0)","b'$VNYMR,+133.392,+005.724,+004.926,-00.3484,-00.0080,+00.4241,+00.945,-00.805,-09.452,+00.000608,-00.001457,-00.000048*60\r\n'"
1666453761.220335,5522,1666453761,189534187,IMU1_Frame,0,1666453761,189553737,IMU1_Frame,0.02882088781072222,0.059139770279668144,0.915568175161558,0.396745208702518,"(0.0, 0.0, 0.0, 0.0, 0.0, 0.0, 0.0, 0.0, 0.0)",-0.000366,0.0,0.0,"(0.0, 0.0, 0.0, 0.0, 0.0, 0.0, 0.0, 0.0, 0.0)",0.964,-0.819,-9.417,"(0.0, 0.0, 0.0, 0.0, 0.0, 0.0, 0.0, 0.0, 0.0)",0,1666453761,189569234,IMU1_Frame,-0.3496,-0.008,0.4178,"(0.0, 0.0, 0.0, 0.0, 0.0, 0.0, 0.0, 0.0, 0.0)","b'$VNYMR,+133.389,+005.722,+004.925,-00.3496,-00.0080,+00.4178,+00.964,-00.819,-09.417,-00.000393,-00.001822,-00.000366*6A\r\n'"
1666453761.2203963,5523,1666453761,214473485,IMU1_Frame,0,1666453761,214493513,IMU1_Frame,0.02882088781072222,0.059139770279668144,0.915568175161558,0.396745208702518,"(0.0, 0.0, 0.0, 0.0, 0.0, 0.0, 0.0, 0.0, 0.0)",-0.000513,0.0,0.0,"(0.0, 0.0, 0.0, 0.0, 0.0, 0.0, 0.0, 0.0, 0.0)",0.939,-0.83,-9.413,"(0.0, 0.0, 0.0, 0.0, 0.0, 0.0, 0.0, 0.0, 0.0)",0,1666453761,214509725,IMU1_Frame,-0.3507,-0.008,0.4215,"(0.0, 0.0, 0.0, 0.0, 0.0, 0.0, 0.0, 0.0, 0.0)","b'$VNYMR,+133.389,+005.722,+004.925,-00.3507,-00.0080,+00.4215,+00.939,-00.830,-09.413,+00.000144,-00.000963,-00.000513*63\r\n'"
1666453761.2642584,5524,1666453761,239450454,IMU1_Frame,0,1666453761,239469528,IMU1_Frame,0.028816909391856188,0.0591480115942344,0.9155641967426921,0.3967534500170843,"(0.0, 0.0, 0.0, 0.0, 0.0, 0.0, 0.0, 0.0, 0.0)",-6e-06,0.0,0.0,"(0.0, 0.0, 0.0, 0.0, 0.0, 0.0, 0.0, 0.0, 0.0)",0.964,-0.817,-9.411,"(0.0, 0.0, 0.0, 0.0, 0.0, 0.0, 0.0, 0.0, 0.0)",0,1666453761,239486217,IMU1_Frame,-0.3484,-0.0068,0.4253,"(0.0, 0.0, 0.0, 0.0, 0.0, 0.0, 0.0, 0.0, 0.0)","b'$VNYMR,+133.388,+005.722,+004.926,-00.3484,-00.0068,+00.4253,+00.964,-00.817,-09.411,+00.000174,+00.000142,-00.000006*6F\r\n'"
1666453761.2653763,5525,1666453761,264644384,IMU1_Frame,0,1666453761,264664888,IMU1_Frame,0.028804410036116862,0.05915307619542995,0.9155573035970866,0.39676950912226233,"(0.0, 0.0, 0.0, 0.0, 0.0, 0.0, 0.0, 0.0, 0.0)",-0.000424,0.0,0.0,"(0.0, 0.0, 0.0, 0.0, 0.0, 0.0, 0.0, 0.0, 0.0)",0.914,-0.835,-9.434,"(0.0, 0.0, 0.0, 0.0, 0.0, 0.0, 0.0, 0.0, 0.0)",0,1666453761,264681100,IMU1_Frame,-0.3462,-0.0046,0.4204,"(0.0, 0.0, 0.0, 0.0, 0.0, 0.0, 0.0, 0.0, 0.0)","b'$VNYMR,+133.386,+005.721,+004.927,-00.3462,-00.0046,+00.4204,+00.914,-00.835,-09.434,+00.000389,-00.000908,-00.000424*61\r\n'"
1666453761.3083553,5526,1666453761,289505243,IMU1_Frame,0,1666453761,289524316,IMU1_Frame,0.02879242676205194,0.059157889119812235,0.9155538726626276,0.3967775782078733,"(0.0, 0.0, 0.0, 0.0, 0.0, 0.0, 0.0, 0.0, 0.0)",-0.001026,0.0,0.0,"(0.0, 0.0, 0.0, 0.0, 0.0, 0.0, 0.0, 0.0, 0.0)",0.953,-0.817,-9.427,"(0.0, 0.0, 0.0, 0.0, 0.0, 0.0, 0.0, 0.0, 0.0)",0,1666453761,289539575,IMU1_Frame,-0.3507,-0.0068,0.4215,"(0.0, 0.0, 0.0, 0.0, 0.0, 0.0, 0.0, 0.0, 0.0)","b'$VNYMR,+133.385,+005.720,+004.928,-00.3507,-00.0068,+00.4215,+00.953,-00.817,-09.427,+00.000010,-00.000281,-00.001026*6D\r\n'"
1666453761.3523486,5527,1666453761,314509630,IMU1_Frame,0,1666453761,314529418,IMU1_Frame,0.02879242676205194,0.059157889119812235,0.9155538726626276,0.3967775782078733,"(0.0, 0.0, 0.0, 0.0, 0.0, 0.0, 0.0, 0.0, 0.0)",-0.000128,0.0,0.0,"(0.0, 0.0, 0.0, 0.0, 0.0, 0.0, 0.0, 0.0, 0.0)",0.957,-0.807,-9.39,"(0.0, 0.0, 0.0, 0.0, 0.0, 0.0, 0.0, 0.0, 0.0)",0,1666453761,314546346,IMU1_Frame,-0.3518,-0.0045,0.4201,"(0.0, 0.0, 0.0, 0.0, 0.0, 0.0, 0.0, 0.0, 0.0)","b'$VNYMR,+133.385,+005.720,+004.928,-00.3518,-00.0045,+00.4201,+00.957,-00.807,-09.390,+00.000662,+00.000113,-00.000128*64\r\n'"
1666453761.3524,5528,1666453761,339422225,IMU1_Frame,0,1666453761,339441299,IMU1_Frame,0.028802861402332913,0.05915383027284979,0.9155469158818728,0.3967934782204466,"(0.0, 0.0, 0.0, 0.0, 0.0, 0.0, 0.0, 0.0, 0.0)",-7.7e-05,0.0,0.0,"(0.0, 0.0, 0.0, 0.0, 0.0, 0.0, 0.0, 0.0, 0.0)",0.949,-0.827,-9.398,"(0.0, 0.0, 0.0, 0.0, 0.0, 0.0, 0.0, 0.0, 0.0)",0,1666453761,339457035,IMU1_Frame,-0.3462,-0.0046,0.4216,"(0.0, 0.0, 0.0, 0.0, 0.0, 0.0, 0.0, 0.0, 0.0)","b'$VNYMR,+133.383,+005.721,+004.927,-00.3462,-00.0046,+00.4216,+00.949,-00.827,-09.398,-00.000753,-00.000688,-00.000077*6D\r\n'"
1666453761.3963432,5529,1666453761,364505290,IMU1_Frame,0,1666453761,364524364,IMU1_Frame,0.02880234518668409,0.05915408162297936,0.9155434531706886,0.3968014678594069,"(0.0, 0.0, 0.0, 0.0, 0.0, 0.0, 0.0, 0.0, 0.0)",2.9e-05,0.0,0.0,"(0.0, 0.0, 0.0, 0.0, 0.0, 0.0, 0.0, 0.0, 0.0)",0.952,-0.82,-9.399,"(0.0, 0.0, 0.0, 0.0, 0.0, 0.0, 0.0, 0.0, 0.0)",0,1666453761,364540338,IMU1_Frame,-0.3461,0.0001,0.4216,"(0.0, 0.0, 0.0, 0.0, 0.0, 0.0, 0.0, 0.0, 0.0)","b'$VNYMR,+133.382,+005.721,+004.927,-00.3461,+00.0001,+00.4216,+00.952,-00.820,-09.399,+00.000129,-00.000775,+00.000029*65\r\n'"
1666453761.3964062,5530,1666453761,389457464,IMU1_Frame,0,1666453761,389477968,IMU1_Frame,0.028794340747911255,0.059150653257129926,0.915544000957855,0.3968012959533159,"(0.0, 0.0, 0.0, 0.0, 0.0, 0.0, 0.0, 0.0, 0.0)",0.001196,0.0,0.0,"(0.0, 0.0, 0.0, 0.0, 0.0, 0.0, 0.0, 0.0, 0.0)",0.974,-0.803,-9.392,"(0.0, 0.0, 0.0, 0.0, 0.0, 0.0, 0.0, 0.0, 0.0)",0,1666453761,389494180,IMU1_Frame,-0.3462,-0.0104,0.423,"(0.0, 0.0, 0.0, 0.0, 0.0, 0.0, 0.0, 0.0, 0.0)","b'$VNYMR,+133.382,+005.720,+004.927,-00.3462,-00.0104,+00.4230,+00.974,-00.803,-09.392,-00.000981,-00.000954,+00.001196*6A\r\n'"
1666453761.4442904,5531,1666453761,414481401,IMU1_Frame,0,1666453761,414500951,IMU1_Frame,0.028790878002270082,0.05915864288350901,0.9155434847361668,0.39680154721623284,"(0.0, 0.0, 0.0, 0.0, 0.0, 0.0, 0.0, 0.0, 0.0)",0.00108,0.0,0.0,"(0.0, 0.0, 0.0, 0.0, 0.0, 0.0, 0.0, 0.0, 0.0)",0.935,-0.793,-9.367,"(0.0, 0.0, 0.0, 0.0, 0.0, 0.0, 0.0, 0.0, 0.0)",0,1666453761,414516925,IMU1_Frame,-0.3473,-0.0081,0.4179,"(0.0, 0.0, 0.0, 0.0, 0.0, 0.0, 0.0, 0.0, 0.0)","b'$VNYMR,+133.382,+005.720,+004.928,-00.3473,-00.0081,+00.4179,+00.935,-00.793,-09.367,-00.000011,-00.000301,+00.001080*62\r\n'"
1666453761.4443476,5532,1666453761,439454555,IMU1_Frame,0,1666453761,439473867,IMU1_Frame,0.028801828968842032,0.0591543329686054,0.9155399903897818,0.3968094574681493,"(0.0, 0.0, 0.0, 0.0, 0.0, 0.0, 0.0, 0.0, 0.0)",0.000253,0.0,0.0,"(0.0, 0.0, 0.0, 0.0, 0.0, 0.0, 0.0, 0.0, 0.0)",0.968,-0.828,-9.432,"(0.0, 0.0, 0.0, 0.0, 0.0, 0.0, 0.0, 0.0, 0.0)",0,1666453761,439490079,IMU1_Frame,-0.3495,-0.0057,0.4227,"(0.0, 0.0, 0.0, 0.0, 0.0, 0.0, 0.0, 0.0, 0.0)","b'$VNYMR,+133.381,+005.721,+004.927,-00.3495,-00.0057,+00.4227,+00.968,-00.828,-09.432,-00.000072,+00.000609,+00.000253*67\r\n'"
1666453761.4922965,5533,1666453761,464522600,IMU1_Frame,0,1666453761,464542388,IMU1_Frame,0.028801312748807113,0.05915458430972609,0.9155365275391528,0.3968174470466729,"(0.0, 0.0, 0.0, 0.0, 0.0, 0.0, 0.0, 0.0, 0.0)",-0.000409,0.0,0.0,"(0.0, 0.0, 0.0, 0.0, 0.0, 0.0, 0.0, 0.0, 0.0)",0.945,-0.8,-9.432,"(0.0, 0.0, 0.0, 0.0, 0.0, 0.0, 0.0, 0.0, 0.0)",0,1666453761,464558839,IMU1_Frame,-0.3462,-0.0081,0.4229,"(0.0, 0.0, 0.0, 0.0, 0.0, 0.0, 0.0, 0.0, 0.0)","b'$VNYMR,+133.380,+005.721,+004.927,-00.3462,-00.0081,+00.4229,+00.945,-00.800,-09.432,-00.000230,-00.000877,-00.000409*64\r\n'"
1666453761.4923613,5534,1666453761,489449977,IMU1_Frame,0,1666453761,489469766,IMU1_Frame,0.028811747644395157,0.05915052611875761,0.9155295699864187,0.39683334655499064,"(0.0, 0.0, 0.0, 0.0, 0.0, 0.0, 0.0, 0.0, 0.0)",-0.000542,0.0,0.0,"(0.0, 0.0, 0.0, 0.0, 0.0, 0.0, 0.0, 0.0, 0.0)",0.948,-0.831,-9.41,"(0.0, 0.0, 0.0, 0.0, 0.0, 0.0, 0.0, 0.0, 0.0)",0,1666453761,489485025,IMU1_Frame,-0.3485,-0.0104,0.4216,"(0.0, 0.0, 0.0, 0.0, 0.0, 0.0, 0.0, 0.0, 0.0)","b'$VNYMR,+133.378,+005.722,+004.926,-00.3485,-00.0104,+00.4216,+00.948,-00.831,-09.410,-00.000501,-00.000819,-00.000542*64\r\n'"
1666453761.5363748,5535,1666453761,514510631,IMU1_Frame,0,1666453761,514530658,IMU1_Frame,0.028799764075541575,0.05915533830605807,0.9155261385689342,0.39684141560092445,"(0.0, 0.0, 0.0, 0.0, 0.0, 0.0, 0.0, 0.0, 0.0)",-3.2e-05,0.0,0.0,"(0.0, 0.0, 0.0, 0.0, 0.0, 0.0, 0.0, 0.0, 0.0)",0.966,-0.799,-9.405,"(0.0, 0.0, 0.0, 0.0, 0.0, 0.0, 0.0, 0.0, 0.0)",0,1666453761,514546871,IMU1_Frame,-0.3473,-0.0069,0.4204,"(0.0, 0.0, 0.0, 0.0, 0.0, 0.0, 0.0, 0.0, 0.0)","b'$VNYMR,+133.377,+005.721,+004.927,-00.3473,-00.0069,+00.4204,+00.966,-00.799,-09.405,+00.000501,-00.000633,-00.000032*6E\r\n'"
1666453761.5402062,5536,1666453761,539417266,IMU1_Frame,0,1666453761,539437294,IMU1_Frame,0.02881071526857157,0.05915102896960824,0.9155226437984969,0.396849325499944,"(0.0, 0.0, 0.0, 0.0, 0.0, 0.0, 0.0, 0.0, 0.0)",1.8e-05,0.0,0.0,"(0.0, 0.0, 0.0, 0.0, 0.0, 0.0, 0.0, 0.0, 0.0)",0.957,-0.82,-9.407,"(0.0, 0.0, 0.0, 0.0, 0.0, 0.0, 0.0, 0.0, 0.0)",0,1666453761,539453744,IMU1_Frame,-0.3495,-0.0068,0.4215,"(0.0, 0.0, 0.0, 0.0, 0.0, 0.0, 0.0, 0.0, 0.0)","b'$VNYMR,+133.376,+005.722,+004.926,-00.3495,-00.0068,+00.4215,+00.957,-00.820,-09.407,-00.000013,-00.000450,+00.000018*60\r\n'"
1666453761.584349,5537,1666453761,564520120,IMU1_Frame,0,1666453761,564539432,IMU1_Frame,0.028821711642441336,0.05916663052792097,0.9155106418122256,0.3968738886580209,"(0.0, 0.0, 0.0, 0.0, 0.0, 0.0, 0.0, 0.0, 0.0)",-0.001076,0.0,0.0,"(0.0, 0.0, 0.0, 0.0, 0.0, 0.0, 0.0, 0.0, 0.0)",0.971,-0.821,-9.419,"(0.0, 0.0, 0.0, 0.0, 0.0, 0.0, 0.0, 0.0, 0.0)",0,1666453761,564553976,IMU1_Frame,-0.3484,-0.0022,0.419,"(0.0, 0.0, 0.0, 0.0, 0.0, 0.0, 0.0, 0.0, 0.0)","b'$VNYMR,+133.373,+005.724,+004.927,-00.3484,-00.0022,+00.4190,+00.971,-00.821,-09.419,+00.000712,-00.001028,-00.001076*6D\r\n'"
1666453761.6283643,5538,1666453761,589490413,IMU1_Frame,0,1666453761,589510202,IMU1_Frame,0.0288291994458743,0.05917031108888385,0.9155066303182839,0.39688204971781693,"(0.0, 0.0, 0.0, 0.0, 0.0, 0.0, 0.0, 0.0, 0.0)",-0.000647,0.0,0.0,"(0.0, 0.0, 0.0, 0.0, 0.0, 0.0, 0.0, 0.0, 0.0)",0.964,-0.826,-9.425,"(0.0, 0.0, 0.0, 0.0, 0.0, 0.0, 0.0, 0.0, 0.0)",0,1666453761,589526176,IMU1_Frame,-0.3462,-0.0057,0.4241,"(0.0, 0.0, 0.0, 0.0, 0.0, 0.0, 0.0, 0.0, 0.0)","b'$VNYMR,+133.372,+005.725,+004.927,-00.3462,-00.0057,+00.4241,+00.964,-00.826,-09.425,-00.000315,-00.001334,-00.000647*6A\r\n'"
1666453761.6284146,5539,1666453761,614558458,IMU1_Frame,0,1666453761,614578723,IMU1_Frame,0.028836170793475467,0.05917424342584894,0.9154991551265728,0.3968981999599891,"(0.0, 0.0, 0.0, 0.0, 0.0, 0.0, 0.0, 0.0, 0.0)",-0.00033,0.0,0.0,"(0.0, 0.0, 0.0, 0.0, 0.0, 0.0, 0.0, 0.0, 0.0)",0.978,-0.802,-9.432,"(0.0, 0.0, 0.0, 0.0, 0.0, 0.0, 0.0, 0.0, 0.0)",0,1666453761,614595413,IMU1_Frame,-0.3495,-0.0045,0.4202,"(0.0, 0.0, 0.0, 0.0, 0.0, 0.0, 0.0, 0.0, 0.0)","b'$VNYMR,+133.370,+005.726,+004.927,-00.3495,-00.0045,+00.4202,+00.978,-00.802,-09.432,-00.000974,+00.000322,-00.000330*62\r\n'"
1666453761.672404,5540,1666453761,639456987,IMU1_Frame,0,1666453761,639476299,IMU1_Frame,0.028835138003703402,0.05917474670296039,0.91549222780675,0.3969141783740934,"(0.0, 0.0, 0.0, 0.0, 0.0, 0.0, 0.0, 0.0, 0.0)",-0.000977,0.0,0.0,"(0.0, 0.0, 0.0, 0.0, 0.0, 0.0, 0.0, 0.0, 0.0)",0.956,-0.8,-9.434,"(0.0, 0.0, 0.0, 0.0, 0.0, 0.0, 0.0, 0.0, 0.0)",0,1666453761,639492750,IMU1_Frame,-0.3483,0.0013,0.4202,"(0.0, 0.0, 0.0, 0.0, 0.0, 0.0, 0.0, 0.0, 0.0)","b'$VNYMR,+133.368,+005.726,+004.927,-00.3483,+00.0013,+00.4202,+00.956,-00.800,-09.434,+00.001025,-00.001230,-00.000977*67\r\n'"
1666453761.6724463,5541,1666453761,664483547,IMU1_Frame,0,1666453761,664503812,IMU1_Frame,0.028838601732236003,0.05916675752388181,0.9154927441689726,0.39691392672493075,"(0.0, 0.0, 0.0, 0.0, 0.0, 0.0, 0.0, 0.0, 0.0)",-0.000182,0.0,0.0,"(0.0, 0.0, 0.0, 0.0, 0.0, 0.0, 0.0, 0.0, 0.0)",0.97,-0.799,-9.372,"(0.0, 0.0, 0.0, 0.0, 0.0, 0.0, 0.0, 0.0, 0.0)",0,1666453761,664520740,IMU1_Frame,-0.3473,-0.0033,0.424,"(0.0, 0.0, 0.0, 0.0, 0.0, 0.0, 0.0, 0.0, 0.0)","b'$VNYMR,+133.368,+005.726,+004.926,-00.3473,-00.0033,+00.4240,+00.970,-00.799,-09.372,-00.001140,-00.000968,-00.000182*64\r\n'"
1666453761.7163181,5542,1666453761,689477682,IMU1_Frame,0,1666453761,689497709,IMU1_Frame,0.028837569073116853,0.059167260843421755,0.9154858165746671,0.3969299050271403,"(0.0, 0.0, 0.0, 0.0, 0.0, 0.0, 0.0, 0.0, 0.0)",-0.000386,0.0,0.0,"(0.0, 0.0, 0.0, 0.0, 0.0, 0.0, 0.0, 0.0, 0.0)",0.94,-0.826,-9.398,"(0.0, 0.0, 0.0, 0.0, 0.0, 0.0, 0.0, 0.0, 0.0)",0,1666453761,689514398,IMU1_Frame,-0.3495,-0.008,0.4253,"(0.0, 0.0, 0.0, 0.0, 0.0, 0.0, 0.0, 0.0, 0.0)","b'$VNYMR,+133.366,+005.726,+004.926,-00.3495,-00.0080,+00.4253,+00.940,-00.826,-09.398,-00.000469,-00.000406,-00.000386*68\r\n'"
1666453761.7163718,5543,1666453761,714751005,IMU1_Frame,0,1666453761,714773178,IMU1_Frame,0.028841032938889982,0.059159271720291735,0.9154863328715636,0.396929653356762,"(0.0, 0.0, 0.0, 0.0, 0.0, 0.0, 0.0, 0.0, 0.0)",0.000232,0.0,0.0,"(0.0, 0.0, 0.0, 0.0, 0.0, 0.0, 0.0, 0.0, 0.0)",0.927,-0.797,-9.386,"(0.0, 0.0, 0.0, 0.0, 0.0, 0.0, 0.0, 0.0, 0.0)",0,1666453761,714790582,IMU1_Frame,-0.3506,-0.0056,0.4239,"(0.0, 0.0, 0.0, 0.0, 0.0, 0.0, 0.0, 0.0, 0.0)","b'$VNYMR,+133.366,+005.726,+004.925,-00.3506,-00.0056,+00.4239,+00.927,-00.797,-09.386,+00.000564,+00.000259,+00.000232*64\r\n'"
1666453761.7603693,5544,1666453761,739459037,IMU1_Frame,0,1666453761,739478349,IMU1_Frame,0.028840000410422388,0.059159775082265845,0.9154794050027775,0.3969456315470709,"(0.0, 0.0, 0.0, 0.0, 0.0, 0.0, 0.0, 0.0, 0.0)",-0.000948,0.0,0.0,"(0.0, 0.0, 0.0, 0.0, 0.0, 0.0, 0.0, 0.0, 0.0)",0.965,-0.807,-9.408,"(0.0, 0.0, 0.0, 0.0, 0.0, 0.0, 0.0, 0.0, 0.0)",0,1666453761,739494085,IMU1_Frame,-0.3484,-0.0045,0.4215,"(0.0, 0.0, 0.0, 0.0, 0.0, 0.0, 0.0, 0.0, 0.0)","b'$VNYMR,+133.364,+005.726,+004.925,-00.3484,-00.0045,+00.4215,+00.965,-00.807,-09.408,+00.000003,-00.000642,-00.000948*6C\r\n'"
1666453761.7653303,5545,1666453761,764492034,IMU1_Frame,0,1666453761,764511585,IMU1_Frame,0.028838967873170338,0.059160278426218744,0.9154724768551203,0.39696160961646354,"(0.0, 0.0, 0.0, 0.0, 0.0, 0.0, 0.0, 0.0, 0.0)",-0.001182,0.0,0.0,"(0.0, 0.0, 0.0, 0.0, 0.0, 0.0, 0.0, 0.0, 0.0)",0.965,-0.791,-9.445,"(0.0, 0.0, 0.0, 0.0, 0.0, 0.0, 0.0, 0.0, 0.0)",0,1666453761,764527559,IMU1_Frame,-0.3518,-0.0079,0.4252,"(0.0, 0.0, 0.0, 0.0, 0.0, 0.0, 0.0, 0.0, 0.0)","b'$VNYMR,+133.362,+005.726,+004.925,-00.3518,-00.0079,+00.4252,+00.965,-00.791,-09.445,-00.000610,-00.000883,-00.001182*65\r\n'"
1666453761.8083313,5546,1666453761,789593935,IMU1_Frame,0,1666453761,789613962,IMU1_Frame,0.028841915813414266,0.05915254111494886,0.915469528914876,0.39696934692773334,"(0.0, 0.0, 0.0, 0.0, 0.0, 0.0, 0.0, 0.0, 0.0)",-0.001197,0.0,0.0,"(0.0, 0.0, 0.0, 0.0, 0.0, 0.0, 0.0, 0.0, 0.0)",0.969,-0.825,-9.412,"(0.0, 0.0, 0.0, 0.0, 0.0, 0.0, 0.0, 0.0, 0.0)",0,1666453761,789630889,IMU1_Frame,-0.3507,-0.0079,0.4252,"(0.0, 0.0, 0.0, 0.0, 0.0, 0.0, 0.0, 0.0, 0.0)","b'$VNYMR,+133.361,+005.726,+004.924,-00.3507,-00.0079,+00.4252,+00.969,-00.825,-09.412,-00.000015,-00.000714,-00.001197*61\r\n'"
1666453761.856366,5547,1666453761,814639568,IMU1_Frame,0,1666453761,814660072,IMU1_Frame,0.02884645540143632,0.05916395990665183,0.9154684644996148,0.39696977009043705,"(0.0, 0.0, 0.0, 0.0, 0.0, 0.0, 0.0, 0.0, 0.0)",-0.000315,0.0,0.0,"(0.0, 0.0, 0.0, 0.0, 0.0, 0.0, 0.0, 0.0, 0.0)",0.936,-0.808,-9.412,"(0.0, 0.0, 0.0, 0.0, 0.0, 0.0, 0.0, 0.0, 0.0)",0,1666453761,814677000,IMU1_Frame,-0.3473,-0.0069,0.4154,"(0.0, 0.0, 0.0, 0.0, 0.0, 0.0, 0.0, 0.0, 0.0)","b'$VNYMR,+133.361,+005.727,+004.925,-00.3473,-00.0069,+00.4154,+00.936,-00.808,-09.412,-00.000232,-00.000625,-00.000315*6F\r\n'"
1666453761.8564475,5548,1666453761,839511871,IMU1_Frame,0,1666453761,839532136,IMU1_Frame,0.02883793532713289,0.0591607817521509,0.9154655484285946,0.3969775875649343,"(0.0, 0.0, 0.0, 0.0, 0.0, 0.0, 0.0, 0.0, 0.0)",0.000469,0.0,0.0,"(0.0, 0.0, 0.0, 0.0, 0.0, 0.0, 0.0, 0.0, 0.0)",0.949,-0.823,-9.407,"(0.0, 0.0, 0.0, 0.0, 0.0, 0.0, 0.0, 0.0, 0.0)",0,1666453761,839548587,IMU1_Frame,-0.3484,-0.0045,0.4215,"(0.0, 0.0, 0.0, 0.0, 0.0, 0.0, 0.0, 0.0, 0.0)","b'$VNYMR,+133.360,+005.726,+004.925,-00.3484,-00.0045,+00.4215,+00.949,-00.823,-09.407,-00.000592,-00.000630,+00.000469*69\r\n'"
1666453761.9003272,5549,1666453761,864699125,IMU1_Frame,0,1666453761,864719867,IMU1_Frame,0.028829415308299463,0.05915760344894549,0.915462632221134,0.3969854049885358,"(0.0, 0.0, 0.0, 0.0, 0.0, 0.0, 0.0, 0.0, 0.0)",-0.000851,0.0,0.0,"(0.0, 0.0, 0.0, 0.0, 0.0, 0.0, 0.0, 0.0, 0.0)",0.968,-0.821,-9.394,"(0.0, 0.0, 0.0, 0.0, 0.0, 0.0, 0.0, 0.0, 0.0)",0,1666453761,864736795,IMU1_Frame,-0.3473,-0.0022,0.4191,"(0.0, 0.0, 0.0, 0.0, 0.0, 0.0, 0.0, 0.0, 0.0)","b'$VNYMR,+133.359,+005.725,+004.925,-00.3473,-00.0022,+00.4191,+00.968,-00.821,-09.394,-00.000253,-00.002025,-00.000851*61\r\n'"
1666453761.9003744,5550,1666453761,889570236,IMU1_Frame,0,1666453761,889590740,IMU1_Frame,0.028848154802409653,0.05916943162273236,0.9155025868454808,0.3968901306472255,"(0.0, 0.0, 0.0, 0.0, 0.0, 0.0, 0.0, 0.0, 0.0)",-0.001024,0.0,0.0,"(0.0, 0.0, 0.0, 0.0, 0.0, 0.0, 0.0, 0.0, 0.0)",0.957,-0.804,-9.41,"(0.0, 0.0, 0.0, 0.0, 0.0, 0.0, 0.0, 0.0, 0.0)",0,1666453761,889606952,IMU1_Frame,-0.3472,0.0001,0.4215,"(0.0, 0.0, 0.0, 0.0, 0.0, 0.0, 0.0, 0.0, 0.0)","b'$VNYMR,+133.371,+005.727,+004.926,-00.3472,+00.0001,+00.4215,+00.957,-00.804,-09.410,+00.000130,-00.000377,-00.001024*6E\r\n'"
1666453761.9443238,5551,1666453761,914515972,IMU1_Frame,0,1666453761,914537429,IMU1_Frame,0.028827241998836853,0.05917229304751377,0.915416525293949,0.39708968139828626,"(0.0, 0.0, 0.0, 0.0, 0.0, 0.0, 0.0, 0.0, 0.0)",0.000471,0.0,0.0,"(0.0, 0.0, 0.0, 0.0, 0.0, 0.0, 0.0, 0.0, 0.0)",0.951,-0.825,-9.426,"(0.0, 0.0, 0.0, 0.0, 0.0, 0.0, 0.0, 0.0, 0.0)",0,1666453761,914554595,IMU1_Frame,-0.3473,-0.0069,0.4204,"(0.0, 0.0, 0.0, 0.0, 0.0, 0.0, 0.0, 0.0, 0.0)","b'$VNYMR,+133.346,+005.726,+004.926,-00.3473,-00.0069,+00.4204,+00.951,-00.825,-09.426,-00.000804,-00.000710,+00.000471*6C\r\n'"
1666453761.9443736,5552,1666453761,939589262,IMU1_Frame,0,1666453761,939609527,IMU1_Frame,0.028821818060536193,0.05918226489199612,0.9153258566726066,0.39729754395477707,"(0.0, 0.0, 0.0, 0.0, 0.0, 0.0, 0.0, 0.0, 0.0)",0.000126,0.0,0.0,"(0.0, 0.0, 0.0, 0.0, 0.0, 0.0, 0.0, 0.0, 0.0)",0.952,-0.8,-9.427,"(0.0, 0.0, 0.0, 0.0, 0.0, 0.0, 0.0, 0.0, 0.0)",0,1666453761,939626216,IMU1_Frame,-0.3484,-0.0069,0.4203,"(0.0, 0.0, 0.0, 0.0, 0.0, 0.0, 0.0, 0.0, 0.0)","b'$VNYMR,+133.320,+005.727,+004.926,-00.3484,-00.0069,+00.4203,+00.952,-00.800,-09.427,+00.000195,+00.000049,+00.000126*6A\r\n'"
1666453761.9884021,5553,1666453761,964707374,IMU1_Frame,0,1666453761,964738607,IMU1_Frame,0.02881765183295024,0.059164365719397545,0.9153066339968907,0.3973447955279372,"(0.0, 0.0, 0.0, 0.0, 0.0, 0.0, 0.0, 0.0, 0.0)",-7.4e-05,0.0,0.0,"(0.0, 0.0, 0.0, 0.0, 0.0, 0.0, 0.0, 0.0, 0.0)",0.93,-0.819,-9.399,"(0.0, 0.0, 0.0, 0.0, 0.0, 0.0, 0.0, 0.0, 0.0)",0,1666453761,964771032,IMU1_Frame,-0.3473,-0.0057,0.4204,"(0.0, 0.0, 0.0, 0.0, 0.0, 0.0, 0.0, 0.0, 0.0)","b'$VNYMR,+133.314,+005.726,+004.924,-00.3473,-00.0057,+00.4204,+00.930,-00.819,-09.399,-00.000365,-00.001921,-00.000074*69\r\n'"
1666453761.9903226,5554,1666453761,989521980,IMU1_Frame,0,1666453761,989542722,IMU1_Frame,0.028835353379074738,0.059176703331304904,0.915339692532367,0.39726551253927683,"(0.0, 0.0, 0.0, 0.0, 0.0, 0.0, 0.0, 0.0, 0.0)",-0.000812,0.0,0.0,"(0.0, 0.0, 0.0, 0.0, 0.0, 0.0, 0.0, 0.0, 0.0)",0.977,-0.807,-9.41,"(0.0, 0.0, 0.0, 0.0, 0.0, 0.0, 0.0, 0.0, 0.0)",0,1666453761,989559412,IMU1_Frame,-0.3473,-0.0057,0.4216,"(0.0, 0.0, 0.0, 0.0, 0.0, 0.0, 0.0, 0.0, 0.0)","b'$VNYMR,+133.324,+005.728,+004.925,-00.3473,-00.0057,+00.4216,+00.977,-00.807,-09.410,-00.000444,+00.000992,-00.000812*6F\r\n'"
1666453762.0323439,5555,1666453762,14410495,IMU1_Frame,0,1666453762,14430522,IMU1_Frame,0.02885316810858382,0.05917535249864084,0.9154050007228627,0.39711390934886054,"(0.0, 0.0, 0.0, 0.0, 0.0, 0.0, 0.0, 0.0, 0.0)",-0.001486,0.0,0.0,"(0.0, 0.0, 0.0, 0.0, 0.0, 0.0, 0.0, 0.0, 0.0)",0.954,-0.805,-9.417,"(0.0, 0.0, 0.0, 0.0, 0.0, 0.0, 0.0, 0.0, 0.0)",0,1666453762,14446020,IMU1_Frame,-0.3495,-0.0068,0.424,"(0.0, 0.0, 0.0, 0.0, 0.0, 0.0, 0.0, 0.0, 0.0)","b'$VNYMR,+133.343,+005.729,+004.925,-00.3495,-00.0068,+00.4240,+00.954,-00.805,-09.417,-00.000002,-00.000289,-00.001486*6D\r\n'"
1666453762.0763612,5556,1666453762,40729045,IMU1_Frame,0,1666453762,40751695,IMU1_Frame,0.028838084230644507,0.05918167158214301,0.9153807726379123,0.39716990788762985,"(0.0, 0.0, 0.0, 0.0, 0.0, 0.0, 0.0, 0.0, 0.0)",-0.00157,0.0,0.0,"(0.0, 0.0, 0.0, 0.0, 0.0, 0.0, 0.0, 0.0, 0.0)",0.941,-0.818,-9.4,"(0.0, 0.0, 0.0, 0.0, 0.0, 0.0, 0.0, 0.0, 0.0)",0,1666453762,40768861,IMU1_Frame,-0.3507,-0.0057,0.414,"(0.0, 0.0, 0.0, 0.0, 0.0, 0.0, 0.0, 0.0, 0.0)","b'$VNYMR,+133.336,+005.728,+004.926,-00.3507,-00.0057,+00.4140,+00.941,-00.818,-09.400,-00.000438,-00.001600,-00.001570*67\r\n'"
